605e4806-5c1e-40f3-8a65-f9732fee2aa6,DS,1659777330711
Accelerometer x,Accelerometer y,Accelerometer z,Gyroscope x,Gyroscope y,Gyroscope z,Magnetometer x,Magnetometer y,Magnetometer z,GPS-Longitude,GPS-Latitude,GPS-Speed,Proximity_ON/OFF,Orientation yaw,Orientation pitch,Orientation roll,Screen
-0.6865,6.6933,6.0915,0.2079,0.0202,0.0663,-31.8817,-6.9901,30.2063,-0.0000,-0.0000,-0.0000,0.0000,-2.1536,0.9015,0.0022,1.0000
1.8382,7.3980,3.2376,0.1013,0.3164,0.4551,7.5577,4.6234,58.0231,-0.0000,-0.0000,-0.0000,0.0000,-2.4971,1.1339,-0.2827,1.0000
-1.0851,4.5637,-11.4201,-0.6976,-0.1385,0.0109,75.7690,38.6673,10.4782,-0.0000,-0.0000,-0.0000,0.0000,-0.6674,1.0898,2.9604,1.0000
-3.2930,5.4480,-5.6868,0.5466,-0.3345,-0.4280,69.6960,48.1186,-8.5480,-0.0000,-0.0000,-0.0000,0.0000,-0.7624,0.7548,2.6149,1.0000
-4.3117,4.5473,-6.7375,-0.0574,-0.0916,0.2016,69.2429,44.7174,-7.1808,-0.0000,-0.0000,-0.0000,0.0000,-0.8198,0.6256,2.6462,1.0000
-4.3440,4.7987,-6.7961,-0.0744,0.1971,0.1600,70.8969,34.3185,0.7721,-0.0000,-0.0000,-0.0000,0.0000,-0.8881,0.6678,2.6453,1.0000
-3.5739,5.0497,-6.9649,-0.1991,0.0969,0.0748,77.5360,31.7612,3.2394,-0.0000,-0.0000,-0.0000,0.0000,-0.9869,0.7397,2.7155,1.0000
-3.2770,5.1367,-6.3189,0.0246,-0.0096,0.0013,76.6251,29.2633,3.0075,-0.0000,-0.0000,-0.0000,0.0000,-0.9841,0.7077,2.6800,1.0000
-5.0176,4.3757,-6.7985,0.0641,-0.0576,-0.3513,71.3348,47.0917,-14.7797,-0.0000,-0.0000,-0.0000,0.0000,-0.8671,0.5445,2.5166,1.0000
-4.7423,4.8031,-6.2459,-0.0638,0.0447,0.2303,72.8760,39.4135,-8.2413,-0.0000,-0.0000,-0.0000,0.0000,-0.8732,0.6001,2.5672,1.0000
0.4400,7.6750,6.3425,-0.1660,0.0628,0.0311,-29.4846,-10.4507,28.9215,-0.0000,-0.0000,-0.0000,0.0000,-2.4953,1.0791,-0.1360,1.0000
-0.2675,7.2492,-2.6550,2.3150,-2.4597,-0.8552,58.6914,51.2573,25.0015,-0.0000,-0.0000,-0.0000,0.0000,-0.4975,0.9696,2.6580,1.0000
-4.8325,4.3063,-7.0842,-0.2225,0.0405,0.5094,69.8624,43.7347,-1.9623,-0.0000,-0.0000,-0.0000,0.0000,-0.8033,0.6668,2.5599,1.0000
-5.2215,4.5326,-5.9083,0.0832,0.0309,-0.0243,63.4155,48.7076,-8.5434,-0.0000,-0.0000,-0.0000,0.0000,-0.7798,0.5606,2.4823,1.0000
-4.5360,4.6698,-6.5056,0.0790,-0.2312,-0.2576,65.4083,46.9147,-9.3796,-0.0000,-0.0000,-0.0000,0.0000,-0.7746,0.5208,2.4858,1.0000
-4.6752,4.3351,-6.4478,0.0790,0.0405,-0.0168,66.2628,42.9749,-6.8649,-0.0000,-0.0000,-0.0000,0.0000,-0.8048,0.5309,2.5002,1.0000
-5.4155,4.4608,-7.2662,-0.2545,0.0213,0.1185,71.3882,41.9067,-6.9122,-0.0000,-0.0000,-0.0000,0.0000,-0.8684,0.4928,2.5343,1.0000
-4.5069,4.5745,-6.9793,-0.0009,-0.0128,0.0322,71.8445,35.5576,-2.4582,-0.0000,-0.0000,-0.0000,0.0000,-0.9058,0.5259,2.5772,1.0000
-5.6633,2.8267,-5.8995,0.1344,0.3515,0.1323,67.5842,39.3906,-5.8868,-0.0000,-0.0000,-0.0000,0.0000,-0.8524,0.4724,2.5238,1.0000
-4.7335,4.3422,-6.9258,0.0459,-0.0480,0.0929,69.0414,39.4348,-4.9194,-0.0000,-0.0000,-0.0000,0.0000,-0.8911,0.4936,2.5806,1.0000
-4.3728,2.6922,-8.1876,-0.0318,0.0245,-0.0157,64.5874,47.4762,-13.4949,-0.0000,-0.0000,-0.0000,0.0000,-0.8333,0.3892,2.5331,1.0000
-3.6114,5.2732,-8.2797,-0.3919,0.1502,0.0258,67.8345,40.6921,-4.0421,-0.0000,-0.0000,-0.0000,0.0000,-0.8795,0.4714,2.5905,1.0000
-4.1126,4.2501,-8.8164,-0.1586,0.0681,-0.0733,67.2043,42.2424,-7.1823,-0.0000,-0.0000,-0.0000,0.0000,-0.8334,0.4556,2.5396,1.0000
-4.8109,3.8750,-5.8492,0.0406,0.0266,-0.1819,66.6428,40.4266,-6.8115,-0.0000,-0.0000,-0.0000,0.0000,-0.8308,0.4316,2.5439,1.0000
-4.6824,3.9727,-5.3392,0.3634,-0.1076,0.0684,68.6340,43.1442,-5.2399,-0.0000,-0.0000,-0.0000,0.0000,-0.8889,0.4710,2.5988,1.0000
-5.0336,4.5829,-5.4913,0.3474,-0.1385,-0.0115,62.9791,44.9234,-7.8888,-0.0000,-0.0000,-0.0000,0.0000,-0.8485,0.4439,2.5500,1.0000
-6.7414,2.6224,-6.7522,-0.2001,0.1896,0.2964,61.9873,44.9020,-11.7935,-0.0000,-0.0000,-0.0000,0.0000,-0.8018,0.3716,2.4897,1.0000
-4.7143,3.1192,-6.4099,0.2792,0.1129,0.2463,66.3895,45.2637,-7.5958,-0.0000,-0.0000,-0.0000,0.0000,-0.8482,0.4165,2.5634,1.0000
-4.2363,3.6679,-8.7155,-0.1852,0.1118,-0.0658,66.7923,42.2729,-6.4804,-0.0000,-0.0000,-0.0000,0.0000,-0.8591,0.4457,2.5722,1.0000
-4.3652,4.1982,-7.5300,-0.0563,0.0159,0.0578,66.6504,41.0019,-6.3919,-0.0000,-0.0000,-0.0000,0.0000,-0.8597,0.4561,2.5805,1.0000
-3.5915,5.0126,-7.1229,-0.0979,0.0500,0.0727,73.2315,36.5036,-3.2211,-0.0000,-0.0000,-0.0000,0.0000,-0.9218,0.5761,2.6286,1.0000
-3.2551,6.1032,-6.7179,-0.2577,0.1438,0.0706,79.3304,28.0045,5.8823,-0.0000,-0.0000,-0.0000,0.0000,-1.0159,0.7679,2.6458,1.0000
-2.7623,8.3386,-1.8681,0.4060,0.0586,-0.3875,89.4409,27.8778,23.4680,-0.0000,-0.0000,-0.0000,0.0000,-0.7634,1.1329,2.5626,1.0000
-2.7487,7.7213,-2.3070,0.1631,-0.2205,-0.0743,84.6100,13.9984,10.2966,-0.0000,-0.0000,-0.0000,0.0000,-0.7522,1.2081,2.2603,1.0000
-2.2200,7.8873,-2.6127,-0.0190,0.0841,0.0024,88.1256,25.6439,4.6722,-0.0000,-0.0000,-0.0000,0.0000,-0.8841,1.1238,2.2743,1.0000
-2.8497,6.7576,-3.7383,0.9780,-0.3036,-0.3502,80.5466,15.6937,-20.4330,-0.0000,-0.0000,-0.0000,0.0000,-1.4062,0.8620,2.5175,1.0000
-6.6002,2.3503,-7.8476,-0.0137,0.2269,-0.5686,54.6921,39.6637,-34.6558,-0.0000,-0.0000,-0.0000,0.0000,-1.0124,0.2107,2.4079,1.0000
-5.7399,-0.7566,-7.6098,0.0694,-0.0341,-0.8594,26.4984,48.3887,-30.5725,-0.0000,-0.0000,-0.0000,0.0000,-0.5633,-0.1396,2.4947,1.0000
-8.5199,-0.4043,-7.6385,-0.5549,-0.3473,1.1124,25.7492,56.0165,-24.1898,-0.0000,-0.0000,-0.0000,0.0000,-0.3986,0.0410,2.4428,1.0000
-4.1800,5.4998,-4.8062,-0.5730,0.0841,0.0663,61.1954,53.5767,4.3640,-0.0000,-0.0000,-0.0000,0.0000,-0.4121,0.6730,2.4987,1.0000
-5.4550,5.9200,-3.1749,0.2270,0.0405,0.0120,55.9830,55.6290,10.4813,-0.0000,-0.0000,-0.0000,0.0000,-0.2531,0.7894,2.3185,1.0000
-5.1900,6.5772,-2.8956,0.2164,-0.0267,-0.0232,61.6959,47.8226,13.9969,-0.0000,-0.0000,-0.0000,0.0000,-0.2887,0.8782,2.2592,1.0000
-3.7926,7.3482,-3.9438,0.0406,-0.0938,-0.1169,60.4462,48.6145,15.6448,-0.0000,-0.0000,-0.0000,0.0000,-0.3424,0.8920,2.2978,1.0000
-3.7894,7.1135,-2.6011,0.1514,0.0298,0.0972,63.8718,46.5103,19.5099,-0.0000,-0.0000,-0.0000,0.0000,-0.3318,0.9380,2.2632,1.0000
-3.5595,7.6111,-2.4223,-0.0095,-0.0309,-0.1095,64.2181,46.0861,17.6208,-0.0000,-0.0000,-0.0000,0.0000,-0.2832,0.9915,2.2043,1.0000
-4.1645,7.0321,-2.5281,0.0129,0.1566,-0.0040,63.5422,45.4361,22.0154,-0.0000,-0.0000,-0.0000,0.0000,-0.3142,0.9966,2.2655,1.0000
-3.1673,7.1534,-3.2758,0.1993,0.0788,-0.1681,61.3556,51.1337,23.4726,-0.0000,-0.0000,-0.0000,0.0000,-0.3224,0.9727,2.4462,1.0000
-4.8081,5.0110,-5.4438,0.1684,0.0085,0.0706,62.9593,46.0297,11.0886,-0.0000,-0.0000,-0.0000,0.0000,-0.6710,0.7225,2.5873,1.0000
-3.6002,5.1491,-7.3221,0.0182,-0.0160,-0.0104,64.2990,49.2569,10.0479,-0.0000,-0.0000,-0.0000,0.0000,-0.6030,0.6977,2.5402,1.0000
-3.0376,6.3019,-6.5172,-0.2896,0.0681,-0.2022,67.5354,44.9799,12.1628,-0.0000,-0.0000,-0.0000,0.0000,-0.6374,0.7292,2.5441,1.0000
-5.8025,3.6866,-7.3300,-0.4888,0.5188,0.2996,56.4529,52.4475,-4.5120,-0.0000,-0.0000,-0.0000,0.0000,-0.6066,0.4331,2.3792,1.0000
-5.3277,4.5254,-7.2299,-0.2374,0.1278,0.0759,59.5963,51.1993,-0.7416,-0.0000,-0.0000,-0.0000,0.0000,-0.6319,0.5186,2.4628,1.0000
-4.4187,4.5892,-6.0360,-0.0201,0.1044,0.0311,64.0060,47.9813,3.9383,-0.0000,-0.0000,-0.0000,0.0000,-0.6976,0.5693,2.5015,1.0000
-4.8369,4.5868,-6.4139,-0.0233,-0.0416,-0.0509,63.1668,47.1603,4.4922,-0.0000,-0.0000,-0.0000,0.0000,-0.6850,0.5733,2.5050,1.0000
-4.7008,3.9149,-6.8508,-0.2161,0.1449,0.0695,62.2940,50.7767,0.5707,-0.0000,-0.0000,-0.0000,0.0000,-0.6712,0.4708,2.4704,1.0000
-5.3616,4.7094,-6.6417,0.0832,-0.1172,0.1675,64.7552,46.4005,1.8616,-0.0000,-0.0000,-0.0000,0.0000,-0.7035,0.5816,2.5143,1.0000
-4.3241,5.0306,-6.2383,-0.1575,0.1321,0.0045,68.2739,42.8864,3.6972,-0.0000,-0.0000,-0.0000,0.0000,-0.7427,0.6127,2.5136,1.0000
-5.2862,3.6559,-6.2251,0.3751,-0.2248,-0.3619,63.1271,48.0270,-7.0450,-0.0000,-0.0000,-0.0000,0.0000,-0.7086,0.4545,2.4142,1.0000
-4.2403,4.8833,-7.4434,0.2451,-0.0299,0.0098,63.1958,45.3766,-5.0140,-0.0000,-0.0000,-0.0000,0.0000,-0.7246,0.4738,2.4919,1.0000
-4.3013,4.5162,-6.8707,-0.3407,0.2056,0.1781,67.5812,40.9149,2.0325,-0.0000,-0.0000,-0.0000,0.0000,-0.7910,0.5528,2.5777,0.0000
-4.1322,4.8155,-7.0423,-0.0382,-0.2077,-0.0285,69.2810,40.4678,0.5920,-0.0000,-0.0000,-0.0000,0.0000,-0.8424,0.5701,2.5544,0.0000
-6.5184,2.2014,-6.6425,-0.0670,0.1992,0.6927,68.7424,42.1982,-11.3327,-0.0000,-0.0000,-0.0000,0.0000,-0.8183,0.4933,2.4412,0.0000
-2.6062,4.8965,-7.6991,0.1674,-0.0799,-0.4365,67.7658,39.5935,-6.1234,-0.0000,-0.0000,-0.0000,0.0000,-0.8526,0.4540,2.5971,0.0000
-2.6254,7.5712,-3.2559,-0.6848,0.1086,-0.1681,44.8425,62.5000,17.0593,-0.0000,-0.0000,-0.0000,0.0000,-0.2700,0.8160,2.5563,0.0000
-3.4203,8.6777,-0.8154,-0.3493,0.0980,0.1355,16.0553,48.9517,37.4176,-0.0000,-0.0000,-0.0000,0.0000,0.2018,1.0406,2.2563,0.0000
-3.2954,8.3936,-0.6606,-0.1980,0.6019,-0.1382,-5.3741,32.9620,46.0388,-0.0000,-0.0000,-0.0000,0.0000,0.7872,1.0856,2.1789,0.0000
-3.7204,7.5417,-0.5038,-0.1597,0.2982,0.0120,-17.3065,24.4064,46.0373,-0.0000,-0.0000,-0.0000,0.0000,1.3483,1.1489,2.0536,0.0000
-1.0229,8.4994,-3.0564,-2.4574,4.4560,1.4426,-31.0883,15.0650,32.7515,-0.0000,-0.0000,-0.0000,0.0000,1.2793,1.2911,2.5455,0.0000
1.0645,8.6758,0.3362,-0.1671,0.1044,0.1781,-41.1072,15.8157,13.1592,-0.0000,-0.0000,-0.0000,0.0000,-0.2126,1.4989,-1.6522,0.0000
1.5652,8.7348,0.2169,-0.0542,0.1491,-0.2256,-42.6575,14.4547,10.5453,-0.0000,-0.0000,-0.0000,0.0000,-0.5074,1.4993,-1.2898,0.0000
0.7129,8.5959,-1.2332,-0.1948,-0.3079,-0.0338,-44.0826,18.0664,11.6837,-0.0000,-0.0000,-0.0000,0.0000,1.6964,1.5126,2.7031,0.0000
1.2077,7.9315,-2.9103,-0.1895,-0.3920,0.1217,-40.3854,16.3422,21.4279,-0.0000,-0.0000,-0.0000,0.0000,0.9075,1.5145,-3.0821,0.0000
0.6255,7.8154,-1.0856,0.0470,-0.3249,0.0077,-29.3915,16.7740,36.9186,-0.0000,-0.0000,-0.0000,0.0000,0.4085,1.5176,-2.9624,0.0000
0.5186,8.4547,-2.7555,0.0363,-0.5412,-0.0626,-10.9070,18.6005,45.4971,-0.0000,-0.0000,-0.0000,0.0000,-0.0308,1.4609,-2.9551,0.0000
-0.8701,8.2847,-2.2623,-0.4462,0.0788,0.0269,-0.8743,21.1990,45.4803,-0.0000,-0.0000,-0.0000,0.0000,0.2433,1.4085,2.7380,0.0000
-0.3401,5.0741,7.1058,-0.3312,0.6658,1.1039,-22.5418,-20.1767,29.0314,-0.0000,-0.0000,-0.0000,0.0000,-2.8722,0.9726,0.1302,0.0000
-1.0404,3.9859,6.2910,0.2728,-1.1186,-0.6677,-30.8594,-7.2205,14.9475,-0.0000,-0.0000,-0.0000,0.0000,-1.9092,0.7493,-0.1095,0.0000
-0.6083,4.9077,6.7020,0.0055,0.0181,-0.0498,-27.8397,-16.9357,16.2811,-0.0000,-0.0000,-0.0000,0.0000,-2.3212,0.7000,-0.0325,0.0000
-2.1621,4.7963,5.9063,0.1184,-0.3505,0.4296,-28.2364,-21.8170,16.7633,-0.0000,-0.0000,-0.0000,0.0000,-2.3612,0.6459,0.0010,0.0000
-0.0987,5.4779,7.3871,0.4582,0.1672,-0.5217,-27.6596,-20.6238,5.7144,-0.0000,-0.0000,-0.0000,0.0000,-2.4376,0.5754,0.0176,0.0000
-1.4423,5.6036,6.9989,0.1407,-0.3643,0.0855,-26.3733,-21.2326,14.7873,-0.0000,-0.0000,-0.0000,0.0000,-2.4569,0.6605,0.2049,1.0000
-0.2974,6.4547,6.6317,0.3815,-1.1814,0.8897,-17.6743,-21.3623,27.6962,-0.0000,-0.0000,-0.0000,0.0000,-2.5076,0.7755,-0.0909,1.0000
-1.7020,5.8235,-7.1074,1.2390,-2.0730,-1.3910,73.5489,36.8759,8.3420,-0.0000,-0.0000,-0.0000,0.0000,-0.6224,0.9039,2.6073,1.0000
-5.4286,4.7165,-6.1373,-0.1671,-0.0054,0.0226,67.3325,38.6063,-12.0789,-0.0000,-0.0000,-0.0000,0.0000,-0.7654,0.7212,2.5592,1.0000
-4.4853,4.7405,-6.7231,-0.1799,-0.0661,0.1185,69.9341,34.8877,-5.0934,-0.0000,-0.0000,-0.0000,0.0000,-0.8588,0.7305,2.6197,1.0000
-5.1593,4.5816,-5.5152,0.1993,-0.0022,-0.0541,70.3369,39.6561,-9.2819,-0.0000,-0.0000,-0.0000,0.0000,-0.8334,0.7043,2.5246,1.0000
-5.4426,-1.3073,-7.7279,1.2337,-0.2823,-0.7103,17.4728,48.6435,-20.2515,-0.0000,-0.0000,-0.0000,0.0000,-0.7122,-0.0203,2.7809,1.0000
1.1343,9.8936,6.9677,-1.1376,0.5337,0.1270,-28.4744,11.5967,18.7805,-0.0000,-0.0000,-0.0000,0.0000,-1.6195,0.9774,-0.7831,1.0000
0.7580,7.1662,4.5001,0.0172,-0.1406,-0.0115,-40.4236,5.9006,10.4340,-0.0000,-0.0000,-0.0000,0.0000,-1.7996,1.0811,-0.4012,1.0000
0.4755,7.5157,3.8944,-0.0041,-0.0181,0.0503,-38.8123,6.2790,18.6447,-0.0000,-0.0000,-0.0000,0.0000,-1.7950,1.1518,-0.4311,1.0000
0.8550,7.3493,4.2415,0.2153,0.0138,-0.1819,-39.3768,6.5750,12.9852,-0.0000,-0.0000,-0.0000,0.0000,-1.6505,1.1127,-0.4167,1.0000
1.5828,7.4906,3.4123,0.0513,0.0010,0.0365,-38.8107,8.3481,11.7783,-0.0000,-0.0000,-0.0000,0.0000,-1.5611,1.1286,-0.3894,1.0000
2.1458,7.9188,3.3198,0.2952,-0.4485,-0.0658,-39.2227,10.9467,16.1636,-0.0000,-0.0000,-0.0000,0.0000,-1.4788,1.1174,-0.4435,1.0000
-1.2531,4.3414,-5.9246,1.5480,-1.0589,0.3379,51.2177,52.6718,23.8663,-0.0000,-0.0000,-0.0000,0.0000,-0.0111,0.9791,2.9642,1.0000
-2.6669,4.5896,-7.5742,0.0736,-0.1801,0.0109,50.0534,48.0621,15.1505,-0.0000,-0.0000,-0.0000,0.0000,-0.3372,0.6688,2.8870,1.0000
-3.8046,3.5150,-8.2929,-0.2662,-0.0384,0.1696,41.6412,53.2532,-1.6235,-0.0000,-0.0000,-0.0000,0.0000,-0.4099,0.4159,2.7335,1.0000
-3.1864,3.7928,-8.2378,-0.0595,-0.0778,0.0759,47.5418,46.6858,9.5657,-0.0000,-0.0000,-0.0000,0.0000,-0.5902,0.5129,2.8047,1.0000
-3.1809,3.7421,-7.0407,0.1248,0.0383,0.0141,51.3290,43.8721,8.3542,-0.0000,-0.0000,-0.0000,0.0000,-0.6819,0.5482,2.7966,1.0000
-3.2220,4.1295,-7.4154,-0.1469,0.0777,0.1749,52.3895,40.2771,8.5648,-0.0000,-0.0000,-0.0000,0.0000,-0.7434,0.5392,2.8007,1.0000
-4.0500,3.0538,-7.6525,0.1109,0.1012,-0.0509,48.2803,48.9380,2.5284,-0.0000,-0.0000,-0.0000,0.0000,-0.7072,0.4400,2.7490,1.0000
-3.5815,2.8626,-8.2171,-0.2843,0.3153,0.3486,43.4189,50.8499,-5.3757,-0.0000,-0.0000,-0.0000,0.0000,-0.6402,0.2677,2.6810,1.0000
-0.2903,5.1890,-6.8456,-5.8066,5.5713,0.1313,45.9442,56.7276,23.9914,-0.0000,-0.0000,-0.0000,0.0000,-0.6009,0.5547,2.7699,1.0000
0.0286,5.7424,6.8991,-1.2313,0.1225,-0.6634,-39.7400,-18.3945,23.5077,-0.0000,-0.0000,-0.0000,0.0000,-2.4917,0.9828,-0.0873,1.0000
-6.2558,3.6898,6.1382,0.2526,0.2141,-0.0786,-36.1588,-29.0695,-9.3323,-0.0000,-0.0000,-0.0000,0.0000,-2.8204,0.6190,0.6829,1.0000
0.1646,5.1096,7.2064,2.0753,-1.3167,-2.0983,-44.4443,-8.2367,5.6488,-0.0000,-0.0000,-0.0000,0.0000,-2.0191,0.3890,0.1452,1.0000
-10.5331,0.6504,-2.5277,0.4891,-0.4283,-0.1595,-3.5172,15.0314,44.2886,-0.0000,-0.0000,-0.0000,1.0000,0.6478,0.6462,1.8303,1.0000
-10.1476,2.2944,-2.4543,-0.0222,-0.0299,0.1632,-9.7794,13.9740,41.0812,-0.0000,-0.0000,-0.0000,1.0000,0.6719,0.4293,1.8463,1.0000
-9.1815,2.8997,-1.6259,0.0023,0.1512,0.1334,-11.3602,5.1895,37.0590,-0.0000,-0.0000,-0.0000,1.0000,0.9464,0.4601,1.8306,1.0000
-9.1352,2.9125,-0.3913,0.2920,-0.3388,-0.3215,-3.6545,5.7495,42.3203,-0.0000,-0.0000,-0.0000,1.0000,1.0936,0.4410,1.7795,1.0000
-9.0219,3.3051,-1.6199,-0.1511,0.3654,-0.0008,-7.0129,6.0562,40.7776,-0.0000,-0.0000,-0.0000,1.0000,1.2572,0.4369,1.7895,1.0000
-9.5391,2.6040,-1.0907,-0.1511,0.0085,0.0045,-8.6151,4.4495,45.0821,-0.0000,-0.0000,-0.0000,1.0000,1.3853,0.3746,1.7752,1.0000
-9.7103,2.3279,-0.7607,-0.0872,0.0394,-0.1286,-8.4091,1.4160,51.5213,-0.0000,-0.0000,-0.0000,1.0000,1.5497,0.3283,1.7449,1.0000
-10.2102,1.0973,0.3222,-0.2566,0.3803,0.3347,-0.8865,0.8179,56.5979,-0.0000,-0.0000,-0.0000,1.0000,1.6221,0.2301,1.6746,1.0000
-9.8276,2.0011,-1.7583,-0.0894,0.1438,0.0162,-12.3962,-3.8452,55.4718,-0.0000,-0.0000,-0.0000,1.0000,1.7462,0.2629,1.7437,1.0000
-9.6272,1.8738,-1.3350,-0.1873,0.0745,0.0674,-15.7303,-3.9719,55.6793,-0.0000,-0.0000,-0.0000,1.0000,1.7051,0.2369,1.7555,1.0000
-9.1029,2.9241,-1.4323,-0.1011,0.1044,-0.1265,-15.4694,-5.6381,54.8325,-0.0000,-0.0000,-0.0000,1.0000,1.6982,0.2682,1.7520,1.0000
-8.7362,2.5961,-1.4778,0.0427,0.0607,0.0066,-15.2039,-2.6321,55.3619,-0.0000,-0.0000,-0.0000,1.0000,1.6648,0.2669,1.7404,1.0000
-9.0949,2.6499,-1.8369,0.0012,-0.0948,-0.0456,-15.2008,-0.0183,57.7682,-0.0000,-0.0000,-0.0000,1.0000,1.6316,0.2438,1.7608,1.0000
-9.4473,2.8503,-2.2922,0.0672,0.0266,0.0642,-14.2456,-3.0899,55.8502,-0.0000,-0.0000,-0.0000,1.0000,1.6729,0.2559,1.7536,1.0000
-9.2178,3.1515,-1.3968,-0.0457,0.0330,0.0375,-14.7324,-4.2221,53.5172,-0.0000,-0.0000,-0.0000,1.0000,1.7006,0.2727,1.7373,1.0000
-9.3743,3.5809,-1.5939,0.1365,-0.0693,0.0737,-14.4058,-2.8503,53.4073,-0.0000,-0.0000,-0.0000,1.0000,1.6588,0.2701,1.7339,1.0000
-9.5518,2.6416,-1.9359,-0.0382,0.0223,-0.0221,-14.3906,-3.4668,53.0609,-0.0000,-0.0000,-0.0000,1.0000,1.6385,0.2852,1.7455,1.0000
-7.9222,2.8610,-1.7783,-0.0190,-0.0863,-0.0797,-20.1141,-2.0569,52.6657,-0.0000,-0.0000,-0.0000,1.0000,1.6273,0.2831,1.7969,1.0000
-9.5941,2.8295,-1.8976,0.0001,-0.0224,-0.0051,-14.1266,-1.8631,52.9312,-0.0000,-0.0000,-0.0000,1.0000,1.6040,0.2758,1.7535,1.0000
-8.6245,3.7293,-2.4211,0.2313,-0.3207,-0.2341,-26.7166,-5.1102,49.1577,-0.0000,-0.0000,-0.0000,1.0000,1.7212,0.4167,1.8721,1.0000
-8.8926,2.7497,-1.7823,0.0555,0.0149,0.0194,-17.9382,-4.7165,54.1306,-0.0000,-0.0000,-0.0000,1.0000,1.6807,0.2908,1.7735,1.0000
-9.2398,2.5410,-2.0720,0.0534,-0.0096,-0.0221,-16.6351,-1.6602,53.5034,-0.0000,-0.0000,-0.0000,1.0000,1.6409,0.2821,1.7749,1.0000
-9.1324,3.0446,-1.9391,-0.0840,-0.0416,-0.1361,-11.5860,1.9821,53.2532,-0.0000,-0.0000,-0.0000,1.0000,1.5442,0.2928,1.7733,1.0000
-9.0522,2.9061,-1.8389,-0.2172,0.1385,-0.0083,-12.6602,-0.5814,54.3976,-0.0000,-0.0000,-0.0000,1.0000,1.5790,0.2593,1.7630,1.0000
-9.1412,3.0845,-1.7041,-0.0670,0.0490,-0.0818,-13.8931,-2.2034,53.9368,-0.0000,-0.0000,-0.0000,1.0000,1.6356,0.2696,1.7643,1.0000
-9.3735,2.5645,-1.4164,-0.0691,-0.0054,0.0567,-14.3311,-1.1963,53.4760,-0.0000,-0.0000,-0.0000,1.0000,1.6323,0.2811,1.7595,1.0000
-9.3296,2.9847,-1.5325,0.0651,-0.2301,-0.0839,-11.5631,-1.1642,56.1752,-0.0000,-0.0000,-0.0000,1.0000,1.6110,0.2679,1.7517,1.0000
-8.9014,2.7641,-1.6215,-0.0148,0.0511,0.0066,-14.9399,0.2991,53.8040,-0.0000,-0.0000,-0.0000,1.0000,1.6069,0.2821,1.7563,1.0000
-9.4185,3.0015,-1.9914,0.0896,-0.0277,0.0770,-13.5712,-0.9872,55.2704,-0.0000,-0.0000,-0.0000,1.0000,1.5883,0.3153,1.7763,1.0000
-9.2170,2.7461,-1.7196,0.0885,-0.0565,0.0311,-14.0228,-0.6378,55.8899,-0.0000,-0.0000,-0.0000,1.0000,1.5920,0.3182,1.7727,1.0000
-8.9996,2.8303,-1.8070,0.0204,-0.0938,0.0311,-14.0366,3.0838,53.3463,-0.0000,-0.0000,-0.0000,1.0000,1.5515,0.3075,1.7741,1.0000
-8.8200,3.1415,-1.5728,0.3186,-0.0554,-0.0019,-13.5727,-1.2878,53.3066,-0.0000,-0.0000,-0.0000,1.0000,1.5722,0.3077,1.7607,1.0000
-9.3160,2.6755,-1.6366,0.0065,0.0234,0.0844,-14.9597,-1.8631,53.3295,-0.0000,-0.0000,-0.0000,1.0000,1.6361,0.2884,1.7547,1.0000
-9.3683,2.8515,-2.1127,0.0619,-0.0277,-0.0722,-17.8116,-1.8265,52.5772,-0.0000,-0.0000,-0.0000,1.0000,1.6464,0.3441,1.7769,1.0000
-9.0291,2.8858,-1.4303,0.0779,-0.0522,-0.0157,-16.5802,-5.0476,53.9734,-0.0000,-0.0000,-0.0000,1.0000,1.6721,0.3382,1.7700,1.0000
-9.1416,2.8606,-1.6306,0.0246,-0.0043,-0.0296,-15.9821,-4.4830,53.9108,-0.0000,-0.0000,-0.0000,1.0000,1.6631,0.3235,1.7637,1.0000
-9.5311,2.7505,-1.4962,-0.1064,0.1012,0.1398,-16.9662,-5.4062,57.0511,-0.0000,-0.0000,-0.0000,1.0000,1.6960,0.3190,1.7697,1.0000
-9.2386,3.3969,-1.8593,0.0641,-0.0522,-0.0605,-18.8385,-4.9713,53.7933,-0.0000,-0.0000,-0.0000,1.0000,1.7271,0.3277,1.7698,1.0000
-9.0207,3.0534,-2.1789,0.0800,0.0191,-0.0583,-17.6041,0.4166,53.0502,-0.0000,-0.0000,-0.0000,1.0000,1.6321,0.3004,1.7802,1.0000
-9.3770,2.6587,-2.2787,0.0023,-0.1215,-0.0029,-15.0085,2.6520,54.8691,-0.0000,-0.0000,-0.0000,1.0000,1.5588,0.2732,1.7855,1.0000
-8.9768,2.8826,-1.9355,0.0822,-0.0437,0.0727,-12.7167,0.0839,56.7184,-0.0000,-0.0000,-0.0000,1.0000,1.5464,0.3037,1.7665,1.0000
-9.0008,2.6894,-1.3832,0.1376,-0.0916,-0.0850,-10.3897,-2.9251,54.5654,-0.0000,-0.0000,-0.0000,1.0000,1.5909,0.3296,1.7415,1.0000
-8.9613,2.9536,-2.1322,-0.0925,0.1598,0.0365,-10.7758,0.9567,53.6163,-0.0000,-0.0000,-0.0000,1.0000,1.5326,0.2959,1.7614,1.0000
-9.3491,2.9823,-2.2863,-0.1671,-0.0448,-0.0669,-12.4573,1.9196,51.7181,-0.0000,-0.0000,-0.0000,1.0000,1.5107,0.3023,1.7984,1.0000
-9.0670,3.3179,-1.3876,-0.0095,0.1821,-0.0839,-8.1619,1.6663,51.6830,-0.0000,-0.0000,-0.0000,1.0000,1.5375,0.2962,1.7005,1.0000
-8.8439,3.2888,-1.5472,-0.0648,0.0863,-0.0029,-9.2499,2.8351,54.4830,-0.0000,-0.0000,-0.0000,1.0000,1.5024,0.2963,1.7236,1.0000
-9.2522,2.9612,-1.6606,0.1301,-0.0373,0.0322,-10.2203,3.4897,53.3539,-0.0000,-0.0000,-0.0000,1.0000,1.4923,0.3065,1.7235,1.0000
-9.6983,2.4935,-2.0971,-0.0180,0.0458,0.0759,-6.4514,4.5807,49.8688,-0.0000,-0.0000,-0.0000,1.0000,1.4507,0.2831,1.7209,1.0000
-8.7454,2.8056,-1.5245,-0.0489,0.0554,0.1707,-6.2363,4.4479,49.7833,-0.0000,-0.0000,-0.0000,1.0000,1.4011,0.2445,1.7166,1.0000
-9.1145,2.9197,-1.4774,0.0523,-0.0000,0.1217,-8.7585,7.7774,46.3287,-0.0000,-0.0000,-0.0000,1.0000,1.3636,0.2970,1.7577,1.0000
-8.7613,3.0226,-1.3737,0.1003,-0.0171,-0.0583,-9.4299,7.2556,46.3806,-0.0000,-0.0000,-0.0000,1.0000,1.4065,0.2972,1.7583,1.0000
-9.0586,2.9233,-1.9399,0.0321,0.0277,0.0631,-5.3970,8.1055,45.2774,-0.0000,-0.0000,-0.0000,1.0000,1.3808,0.2715,1.7361,1.0000
-9.3252,2.5793,-2.2308,0.2547,-0.0426,0.0301,-6.6864,10.7590,41.5939,-0.0000,-0.0000,-0.0000,1.0000,1.2855,0.2583,1.7598,1.0000
-9.8766,2.2717,-3.3114,-0.0446,0.0245,0.0844,-7.5958,16.9327,38.2004,-0.0000,-0.0000,-0.0000,1.0000,1.1380,0.2426,1.8231,1.0000
-9.0379,2.4879,-2.5692,-0.0425,0.0021,0.1014,-7.0084,14.6393,37.9196,-0.0000,-0.0000,-0.0000,1.0000,1.1650,0.2570,1.8249,1.0000
-9.6827,2.8714,-2.6466,0.0182,-0.0224,0.0152,-5.5298,11.3205,37.2269,-0.0000,-0.0000,-0.0000,1.0000,1.1793,0.2690,1.8061,1.0000
-9.1452,2.2772,-2.3908,0.2036,-0.0256,-0.0125,-4.6585,11.8530,36.5143,-0.0000,-0.0000,-0.0000,1.0000,1.1843,0.2546,1.8116,1.0000
-9.4257,2.1503,-2.2719,-0.0009,-0.0341,0.0130,-4.3732,12.8555,35.0937,-0.0000,-0.0000,-0.0000,1.0000,1.1848,0.2459,1.7977,1.0000
-8.9022,2.5215,-2.0592,0.1312,-0.0245,-0.0275,-4.1290,11.5906,36.0489,-0.0000,-0.0000,-0.0000,1.0000,1.2099,0.2679,1.7940,1.0000
-9.3032,2.8686,-2.6562,-0.0158,-0.0192,0.0397,-6.1188,10.3607,33.0276,-0.0000,-0.0000,-0.0000,1.0000,1.2000,0.2936,1.8161,1.0000
-8.9285,2.8323,-2.8481,0.0992,-0.0501,0.0418,-3.2959,12.0224,29.8080,-0.0000,-0.0000,-0.0000,1.0000,1.1616,0.2979,1.7948,1.0000
-8.8771,3.1671,-3.2176,0.1567,-0.0149,-0.0040,-3.8361,11.1664,26.4465,-0.0000,-0.0000,-0.0000,1.0000,1.1143,0.3140,1.7863,1.0000
-8.7206,3.1990,-3.0951,0.1972,-0.0512,0.0567,-2.9037,9.1888,21.7087,-0.0000,-0.0000,-0.0000,1.0000,1.0158,0.3237,1.7996,1.0000
0.7181,4.2533,8.3420,0.0385,-0.5412,-0.5004,3.3600,-12.0682,25.0717,-0.0000,-0.0000,-0.0000,0.0000,-2.8119,0.9584,0.2907,1.0000
-2.3393,4.8626,6.5543,0.1589,-0.1886,0.2815,4.0863,-10.6979,21.3333,-0.0000,-0.0000,-0.0000,0.0000,-3.0550,0.8190,0.2968,1.0000
-0.4275,6.2827,6.0679,0.0577,0.2503,0.0152,5.4886,-4.0405,18.4723,-0.0000,-0.0000,-0.0000,0.0000,2.9666,0.9031,0.2916,1.0000
-0.5101,6.2899,6.4586,0.1461,-0.0256,-0.1841,8.4656,-5.5435,17.1814,-0.0000,-0.0000,-0.0000,0.0000,2.9874,0.9006,0.1313,1.0000
-1.2340,6.7376,5.8225,0.3400,-0.1002,-0.0008,6.5323,-1.1459,15.6906,-0.0000,-0.0000,-0.0000,0.0000,2.6987,0.9046,0.2790,1.0000
-0.4443,7.2548,5.9290,0.0896,-0.1353,0.1291,8.8654,-3.3493,12.8540,-0.0000,-0.0000,-0.0000,0.0000,2.5949,0.8845,0.2738,1.0000
-0.7974,7.0916,4.4586,0.3208,-0.1886,-0.1276,9.0149,3.8513,8.6945,-0.0000,-0.0000,-0.0000,0.0000,2.4176,0.9455,0.2884,1.0000
-1.2192,7.0976,3.9682,0.0545,-0.1641,0.0407,12.2543,6.6101,3.7125,-0.0000,-0.0000,-0.0000,0.0000,2.3073,0.9766,0.2482,1.0000
-1.7814,7.4443,4.9438,0.1120,0.1598,0.1366,13.3850,4.8279,0.7751,-0.0000,-0.0000,-0.0000,0.0000,2.1447,0.9756,0.1994,1.0000
-2.3181,7.0840,5.2926,-0.1213,0.0458,0.3305,12.7655,6.2225,-0.3540,-0.0000,-0.0000,-0.0000,0.0000,2.0395,1.0000,0.2145,1.0000
-1.8988,7.1506,4.3832,0.1951,-0.0043,-0.2022,14.5477,6.8771,-1.0254,-0.0000,-0.0000,-0.0000,0.0000,2.0859,1.0056,0.1851,1.0000
-1.5616,7.4603,5.0061,-0.1991,0.1012,0.2421,13.5071,6.6895,-0.1923,-0.0000,-0.0000,-0.0000,0.0000,2.0550,1.0154,0.1757,1.0000
-1.2559,7.1000,4.4850,-0.0009,-0.0597,0.0737,13.0325,5.9494,-1.3214,-0.0000,-0.0000,-0.0000,0.0000,2.0701,1.0267,0.1193,1.0000
-3.2595,7.4571,0.6746,-1.7746,0.3739,0.5041,12.9242,10.1990,-2.5986,-0.0000,-0.0000,-0.0000,0.0000,1.8954,0.9987,0.1408,1.0000
-0.5217,4.8598,7.4047,-0.7818,0.6551,0.1867,15.1062,0.7324,-1.0773,-0.0000,-0.0000,-0.0000,0.0000,2.0515,0.6755,0.1517,1.0000
-2.9602,2.2944,9.4525,-0.3546,-1.0770,-0.9020,13.5162,0.2930,-1.8448,-0.0000,-0.0000,-0.0000,0.0000,1.9481,0.3416,0.2803,1.0000
-6.0228,4.0374,7.7598,0.4007,0.4101,0.1643,11.5189,4.6021,0.8911,-0.0000,-0.0000,-0.0000,0.0000,1.7116,0.5302,0.7224,1.0000
-3.4869,-0.9765,10.9501,0.7916,0.4112,0.7150,15.0650,-0.8377,-4.4647,-0.0000,-0.0000,-0.0000,0.0000,1.9299,0.1419,0.2949,1.0000
0.1802,4.6786,8.3268,0.3943,0.4708,-0.3907,13.2645,1.2161,-1.4175,-0.0000,-0.0000,-0.0000,0.0000,1.8272,0.5814,0.0890,1.0000
-2.3992,3.6068,8.1780,-0.1330,0.4729,-0.1329,12.5626,-1.8158,-0.1541,-0.0000,-0.0000,-0.0000,0.0000,1.8239,0.4937,0.2318,1.0000
-1.3521,4.0789,7.4601,0.0140,0.0586,0.2048,14.2807,-2.4948,-2.1042,-0.0000,-0.0000,-0.0000,0.0000,1.7629,0.4685,0.1628,1.0000
-3.3955,4.7397,5.0077,-0.6028,-0.3345,0.0215,11.9202,-1.9058,2.1622,-0.0000,-0.0000,-0.0000,0.0000,1.8472,0.5679,0.2820,1.0000
-1.7260,4.8302,8.7654,0.2782,-0.1087,0.0365,12.9303,-1.8387,-1.5640,-0.0000,-0.0000,-0.0000,0.0000,1.8842,0.5397,0.2233,1.0000
-1.1174,5.7660,7.3177,0.0491,-0.0714,-0.2778,12.5793,-0.1740,-0.3693,-0.0000,-0.0000,-0.0000,0.0000,1.8257,0.6632,0.2227,1.0000
-0.5668,5.5565,7.3428,-0.1075,0.0277,0.0322,11.5494,1.5869,-0.5081,-0.0000,-0.0000,-0.0000,0.0000,1.8168,0.6769,0.1769,1.0000
-1.1558,5.0394,7.8384,0.0427,0.0554,-0.0743,13.5254,-0.0793,-1.5427,-0.0000,-0.0000,-0.0000,0.0000,1.8354,0.6332,0.1778,1.0000
-2.3584,6.1822,5.1665,-0.4281,-0.0011,0.2506,12.0483,2.1194,0.0565,-0.0000,-0.0000,-0.0000,0.0000,1.7934,0.7223,0.2226,1.0000
-0.8074,5.6646,7.1114,0.2185,0.0128,-0.1979,13.1149,2.0172,1.8555,-0.0000,-0.0000,-0.0000,0.0000,1.8604,0.6996,0.2056,1.0000
-1.0991,6.9112,5.8309,-0.0957,0.0255,-0.0573,13.4476,0.5066,0.1099,-0.0000,-0.0000,-0.0000,0.0000,1.8167,0.7631,0.2146,1.0000
-1.0265,6.1850,6.2128,0.3069,-0.0629,-0.0892,12.5732,3.7689,0.2075,-0.0000,-0.0000,-0.0000,0.0000,1.7789,0.7669,0.2191,1.0000
-0.7104,6.4463,6.2563,-0.0126,0.0660,0.1600,12.0575,3.5172,0.2090,-0.0000,-0.0000,-0.0000,0.0000,1.7838,0.7804,0.2108,1.0000
-1.9299,5.8721,5.5580,-0.2513,0.0202,-0.0456,12.7884,2.7420,-0.3357,-0.0000,-0.0000,-0.0000,0.0000,1.7661,0.7979,0.1912,1.0000
-2.1649,6.2851,6.4195,-0.0297,0.1630,0.1483,13.2034,2.4353,1.0925,-0.0000,-0.0000,-0.0000,0.0000,1.7502,0.7684,0.2020,1.0000
-0.8689,6.3382,6.0819,-0.0606,-0.1992,-0.1681,12.7060,1.0544,-0.7965,-0.0000,-0.0000,-0.0000,0.0000,1.7450,0.7614,0.1947,1.0000
-0.6877,5.6782,6.9977,-0.0063,-0.0490,-0.0232,13.9740,-1.4481,-0.0565,-0.0000,-0.0000,-0.0000,0.0000,1.7113,0.7088,0.2072,1.0000
-1.3250,3.7078,8.7023,0.3229,0.2759,-0.1489,13.6032,0.4639,-3.7277,-0.0000,-0.0000,-0.0000,0.0000,1.6432,0.5470,0.1664,1.0000
-5.1166,2.8139,8.4733,0.2494,-0.0831,0.0290,14.1418,2.3117,-1.3611,-0.0000,-0.0000,-0.0000,0.0000,1.5287,0.3558,0.4955,1.0000
-6.3360,3.6060,6.6617,-0.1842,-0.2578,-0.0072,9.6649,2.2552,3.7399,-0.0000,-0.0000,-0.0000,0.0000,1.5421,0.4674,0.8349,1.0000
1.3115,4.5122,7.9306,1.3828,-0.8821,-0.0903,16.0934,0.8438,-6.2195,-0.0000,-0.0000,-0.0000,0.0000,1.8043,0.5641,-0.0668,1.0000
-0.3972,4.1874,9.2055,-0.4973,0.7233,-0.0626,14.1693,-1.7349,-0.3662,-0.0000,-0.0000,-0.0000,0.0000,1.6444,0.4688,0.2528,1.0000
-1.1203,2.7278,10.8455,0.9131,-0.5412,-0.2842,14.2914,-1.7868,-4.1153,-0.0000,-0.0000,-0.0000,0.0000,1.5878,0.4013,0.1689,1.0000
-1.5923,5.7089,7.7897,0.4145,-0.1545,0.0418,13.7558,-1.0468,1.8784,-0.0000,-0.0000,-0.0000,0.0000,1.6322,0.6348,0.2450,1.0000
-0.9774,5.2596,7.8129,-0.3599,1.6522,-0.1979,12.5320,1.9012,3.4760,-0.0000,-0.0000,-0.0000,0.0000,1.6842,0.6636,0.3201,1.0000
-2.7818,4.2361,7.0443,0.1951,-0.0373,-0.0040,12.4527,-0.9827,1.5411,-0.0000,-0.0000,-0.0000,0.0000,1.5340,0.5559,0.3289,1.0000
-0.5185,6.1714,6.6345,0.0150,-0.2749,-0.0253,12.7182,1.5839,3.8406,-0.0000,-0.0000,-0.0000,0.0000,1.6007,0.6084,0.3451,1.0000
-2.6158,5.2899,9.0698,-0.7200,0.2610,-0.2309,12.9028,4.7516,0.6516,-0.0000,-0.0000,-0.0000,0.0000,1.4467,0.5920,0.4097,1.0000
-1.0648,5.5780,7.4801,0.2515,-0.2472,-0.5835,12.1735,11.6760,-5.0278,-0.0000,-0.0000,-0.0000,0.0000,1.1667,0.6278,0.2294,1.0000
-1.4930,3.1008,8.9837,0.5434,0.9726,0.0141,10.0708,15.1718,-5.7846,-0.0000,-0.0000,-0.0000,0.0000,0.7700,0.4191,0.1420,1.0000
-1.5588,5.9192,5.2084,-0.0616,-0.5039,-0.0679,14.3799,18.9713,-12.1201,-0.0000,-0.0000,-0.0000,0.0000,0.7501,0.6734,0.1994,1.0000
-1.3345,5.2540,7.4561,0.0662,0.0980,0.2644,11.7844,16.2125,-15.0772,-0.0000,-0.0000,-0.0000,0.0000,0.6125,0.6644,0.0952,1.0000
-1.0580,5.8909,5.7734,0.2302,0.7425,0.1270,13.9221,12.1902,-14.2792,-0.0000,-0.0000,-0.0000,0.0000,0.6745,0.7041,0.1095,1.0000
-1.8589,5.3378,6.6633,-0.5655,-0.0863,0.0706,14.1373,10.5255,-12.4542,-0.0000,-0.0000,-0.0000,0.0000,0.7262,0.5898,0.1728,1.0000
-1.0572,5.5310,6.8245,0.1812,-0.0096,-0.2160,13.5849,3.8864,-7.2021,-0.0000,-0.0000,-0.0000,0.0000,0.8463,0.6188,0.1787,1.0000
-1.6633,5.3306,7.6505,0.4966,0.4644,-0.2245,14.0121,0.2823,-2.3499,-0.0000,-0.0000,-0.0000,0.0000,1.0132,0.6796,0.2710,1.0000
-1.4407,5.2153,6.7351,0.0587,0.0554,-0.2054,12.6190,-0.8133,2.2446,-0.0000,-0.0000,-0.0000,0.0000,1.1093,0.6478,0.2800,1.0000
-1.2244,5.1754,7.6122,0.1418,-0.4613,-0.0626,14.5508,0.5310,0.6653,-0.0000,-0.0000,-0.0000,0.0000,1.0102,0.6160,0.2917,1.0000
-2.8836,3.9719,7.4617,0.0044,0.1683,0.1302,13.3408,3.2150,0.4501,-0.0000,-0.0000,-0.0000,0.0000,0.8803,0.4409,0.3345,1.0000
-2.1761,6.1463,4.5743,-0.5400,-0.2610,-0.0232,14.2670,6.1371,-0.0595,-0.0000,-0.0000,-0.0000,0.0000,0.8882,0.6533,0.3809,1.0000
-2.8537,5.5182,6.9741,0.4507,-0.3643,0.0610,15.2649,5.9082,-2.6978,-0.0000,-0.0000,-0.0000,0.0000,0.9288,0.7066,0.3391,1.0000
-1.8461,5.0282,7.5683,-0.5730,-0.2344,-0.5430,16.0843,5.2322,-8.2489,-0.0000,-0.0000,-0.0000,0.0000,0.9329,0.6818,0.2245,1.0000
-0.8034,6.4244,5.9187,0.2569,-0.0085,0.3081,16.3498,7.0679,-8.7189,-0.0000,-0.0000,-0.0000,0.0000,0.9064,0.6678,0.1007,1.0000
-0.5967,5.7069,6.4470,-0.0212,-0.1161,-0.1521,16.1118,5.8472,-8.6914,-0.0000,-0.0000,-0.0000,0.0000,0.9086,0.7140,0.0771,1.0000
0.0988,5.2425,6.6369,0.0715,-0.1321,-0.0466,14.7858,-3.9993,14.9338,-0.0000,-0.0000,-0.0000,0.0000,0.6624,0.9796,0.1545,1.0000
0.6136,6.2472,5.8369,-0.0894,0.1416,-0.1468,15.3030,7.4554,-9.2422,-0.0000,-0.0000,-0.0000,0.0000,1.1847,0.8404,0.0501,1.0000
-0.9447,5.8965,6.1880,-0.2055,-0.0682,-0.0509,14.7751,7.8293,-9.8862,-0.0000,-0.0000,-0.0000,0.0000,0.9839,0.7663,0.1330,1.0000
-0.0042,6.2420,6.7870,0.0577,-0.0299,0.0482,15.3336,5.9387,-7.2220,-0.0000,-0.0000,-0.0000,0.0000,0.9769,0.7666,0.0960,1.0000
-0.6662,6.0629,6.6441,0.1248,0.0745,-0.0008,16.2033,7.9132,-9.3430,-0.0000,-0.0000,-0.0000,0.0000,0.8942,0.7764,0.1230,1.0000
-1.1314,6.1463,6.1338,0.0747,-0.0682,-0.0051,12.1704,8.6243,-9.2087,-0.0000,-0.0000,-0.0000,0.0000,0.7759,0.7538,0.1661,1.0000
-0.9666,5.9591,6.5268,0.2313,-0.0352,-0.1010,14.4943,12.4344,-9.5367,-0.0000,-0.0000,-0.0000,0.0000,0.6277,0.7431,0.2226,1.0000
-1.6665,6.2321,6.9398,0.1280,-0.0384,-0.0061,11.8591,15.3885,-10.7025,-0.0000,-0.0000,-0.0000,0.0000,0.4728,0.7688,0.2319,1.0000
-0.7647,6.6514,5.3293,-0.0499,-0.1353,-0.1915,12.7457,18.0649,-15.1886,-0.0000,-0.0000,-0.0000,0.0000,0.3780,0.7848,0.1951,1.0000
-1.5249,7.0541,4.7435,-0.2214,0.0159,0.0322,9.9640,18.5013,-18.9987,-0.0000,-0.0000,-0.0000,0.0000,0.2676,0.7934,0.1664,1.0000
-2.0867,6.5345,4.7503,-0.0883,0.0213,0.0578,8.6731,19.6884,-18.9575,-0.0000,-0.0000,-0.0000,0.0000,0.2104,0.7997,0.1721,1.0000
-1.2128,6.6283,5.7906,-0.0201,-0.0128,-0.0104,9.9289,17.5797,-20.9763,-0.0000,-0.0000,-0.0000,0.0000,0.2211,0.8183,0.1695,1.0000
-2.0584,6.0258,6.2622,-0.0393,0.2141,0.1472,10.0052,12.0361,-17.8040,-0.0000,-0.0000,-0.0000,0.0000,0.3153,0.8291,0.1473,1.0000
-1.6701,5.4998,7.3309,0.0779,0.2450,0.1984,12.0758,9.7290,-14.2441,-0.0000,-0.0000,-0.0000,0.0000,0.4591,0.8085,0.1622,1.0000
-1.5975,5.7704,6.8093,0.1333,0.2343,-0.0392,12.9425,7.7576,-10.1837,-0.0000,-0.0000,-0.0000,0.0000,0.5938,0.7974,0.1976,1.0000
-0.8349,5.9368,6.6577,0.2100,0.0479,-0.0456,15.8020,10.4477,-8.7723,-0.0000,-0.0000,-0.0000,0.0000,0.6205,0.8167,0.2298,1.0000
0.0138,5.9464,8.1150,0.4603,0.1598,-0.1819,15.7455,11.4624,-11.9202,-0.0000,-0.0000,-0.0000,0.0000,0.6198,0.7789,0.1901,1.0000
-0.6418,6.3127,5.9550,0.0012,0.1203,0.0972,11.7737,12.9242,-11.5555,-0.0000,-0.0000,-0.0000,0.0000,0.4857,0.8155,0.1887,1.0000
-1.0608,6.2592,7.0847,-0.0563,-0.0054,-0.0647,13.1973,12.0224,-15.0848,-0.0000,-0.0000,-0.0000,0.0000,0.4846,0.8087,0.1458,1.0000
-0.4563,5.9583,6.0121,0.4337,0.0767,-0.0264,10.8551,14.3570,-12.8082,-0.0000,-0.0000,-0.0000,0.0000,0.4753,0.8095,0.1457,1.0000
-1.0899,5.2568,7.9833,0.2057,0.0213,-0.0264,12.5183,9.8862,-13.4888,-0.0000,-0.0000,-0.0000,0.0000,0.5069,0.7644,0.1171,1.0000
-0.9311,5.3314,7.0232,-0.6220,0.4580,0.0077,13.6063,9.7458,-13.2141,-0.0000,-0.0000,-0.0000,0.0000,0.5991,0.7294,0.1158,1.0000
-3.8460,4.5461,8.3811,0.8513,0.8543,0.1867,12.4207,14.6408,-12.7396,-0.0000,-0.0000,-0.0000,0.0000,0.2951,0.4649,0.5253,1.0000
-6.5874,1.5031,7.1357,0.1045,-1.8898,-0.8797,9.5261,16.1240,-7.4661,-0.0000,-0.0000,-0.0000,0.0000,0.2275,0.2646,0.8582,1.0000
-2.5213,5.0860,6.0891,0.4337,-0.1470,-0.0775,3.1464,17.7368,-18.3762,-0.0000,-0.0000,-0.0000,0.0000,0.0384,0.5602,0.1337,1.0000
-0.4535,6.7101,4.5652,0.2952,-0.2291,-0.0914,-2.0584,19.1849,-24.0158,-0.0000,-0.0000,-0.0000,0.0000,-0.1917,0.8710,0.1640,1.0000
0.5609,7.7715,5.2842,0.0694,-0.3058,-0.3896,-7.2922,21.1899,-31.6605,-0.0000,-0.0000,-0.0000,0.0000,-0.3329,0.8783,0.0661,1.0000
-1.7096,6.8386,4.7802,-0.1969,0.1022,0.2037,-22.0245,21.4233,-35.5103,-0.0000,-0.0000,-0.0000,0.0000,-0.6749,0.9749,0.1629,1.0000
-1.2416,6.0984,5.9123,-0.1597,0.3025,0.1174,-16.4017,25.1801,-33.4747,-0.0000,-0.0000,-0.0000,0.0000,-0.5492,0.7353,0.1194,1.0000
0.1140,6.3865,5.3652,-0.2747,0.3494,0.0450,-23.1003,24.5209,-32.3944,-0.0000,-0.0000,-0.0000,0.0000,-0.5046,0.7818,-0.1107,1.0000
-1.6885,3.5123,8.0479,0.7384,0.7158,0.0972,-11.0031,27.4292,-36.9659,-0.0000,-0.0000,-0.0000,0.0000,-0.4275,0.6059,0.1451,1.0000
-1.7974,5.7548,6.2527,-0.1895,0.4570,0.1558,-10.2554,27.1225,-34.5734,-0.0000,-0.0000,-0.0000,0.0000,-0.3889,0.7326,0.1848,1.0000
-2.1250,4.7441,7.3616,-0.3439,-0.6307,-0.8456,-4.1550,29.5120,-34.5139,-0.0000,-0.0000,-0.0000,0.0000,-0.2824,0.6198,0.2142,1.0000
-3.1362,5.3067,6.6429,-0.2907,-0.9652,-0.4514,-0.6409,28.0365,-34.8755,-0.0000,-0.0000,-0.0000,0.0000,-0.3636,0.5972,0.4434,1.0000
-2.5672,4.3622,8.2139,0.2089,-0.1960,0.0226,-5.1071,27.8625,-33.7234,-0.0000,-0.0000,-0.0000,0.0000,-0.3435,0.5197,0.2935,1.0000
-3.2020,5.2903,6.6489,-0.3599,-0.4410,-0.0029,0.1526,28.0640,-35.5972,-0.0000,-0.0000,-0.0000,0.0000,-0.3600,0.6058,0.4621,1.0000
-2.2878,3.6192,7.4051,0.5104,-0.0032,0.2985,-8.8486,28.7598,-34.5520,-0.0000,-0.0000,-0.0000,0.0000,-0.3923,0.4769,0.2207,1.0000
-1.5217,4.1770,8.1118,0.2686,0.2642,0.0620,-4.2526,28.3401,-35.5911,-0.0000,-0.0000,-0.0000,0.0000,-0.2858,0.5643,0.2182,1.0000
-1.7679,5.0142,7.4318,-0.1511,-0.1151,-0.0978,-4.7714,28.4668,-34.8602,-0.0000,-0.0000,-0.0000,0.0000,-0.2968,0.6260,0.2443,1.0000
-2.1410,6.0473,6.7375,0.0598,-0.0373,-0.0061,-7.5455,26.1185,-35.2142,-0.0000,-0.0000,-0.0000,0.0000,-0.3384,0.6607,0.2341,1.0000
-1.5452,6.1195,5.6805,0.1738,0.1427,0.0503,-3.2761,30.6824,-32.4249,-0.0000,-0.0000,-0.0000,0.0000,-0.3250,0.6827,0.2222,1.0000
-0.8832,5.5693,6.2830,0.2047,-0.1918,-0.1191,-5.9937,31.0577,-35.2142,-0.0000,-0.0000,-0.0000,0.0000,-0.2921,0.6828,0.1910,1.0000
-2.3501,4.9735,7.5671,0.0204,0.2546,0.1632,-12.2437,27.7435,-34.2438,-0.0000,-0.0000,-0.0000,0.0000,-0.4745,0.6103,0.2494,1.0000
-2.3002,5.3869,7.3915,0.0396,0.4538,0.0961,-5.5298,28.0518,-38.9297,-0.0000,-0.0000,-0.0000,0.0000,-0.4081,0.6451,0.3472,1.0000
-2.2846,5.3558,6.4203,-0.1618,0.1619,0.0226,-5.2444,26.1444,-39.2029,-0.0000,-0.0000,-0.0000,0.0000,-0.4225,0.6773,0.3031,1.0000
-2.8724,5.1204,8.4469,0.3911,0.1757,0.1579,-6.9794,26.0193,-36.3098,-0.0000,-0.0000,-0.0000,0.0000,-0.3958,0.7054,0.2774,1.0000
-1.6370,4.5845,8.0244,-0.6593,-1.4786,-0.0115,-7.9010,28.5065,-35.4675,-0.0000,-0.0000,-0.0000,0.0000,-0.3822,0.5994,0.3151,1.0000
-1.7148,4.9556,5.3928,-0.1884,-0.2195,-0.2330,-9.8389,26.4679,-35.4156,-0.0000,-0.0000,-0.0000,0.0000,-0.3035,0.6490,0.1225,1.0000
-0.9966,6.3334,4.7008,0.3048,-0.2376,0.0184,-7.1487,24.4934,-37.9425,-0.0000,-0.0000,-0.0000,0.0000,-0.2605,0.7328,0.1266,1.0000
-1.4395,6.0641,5.8624,0.2185,0.1182,0.1835,-6.7093,26.4404,-39.2410,-0.0000,-0.0000,-0.0000,0.0000,-0.2437,0.7628,0.1262,1.0000
-0.0161,6.5309,7.8129,0.2025,-0.2930,-0.1574,-10.6384,26.9165,-36.7584,-0.0000,-0.0000,-0.0000,0.0000,-0.2732,0.7913,0.0846,1.0000
-0.7380,6.1989,5.9374,-0.0830,0.0745,0.0567,-12.9196,27.3483,-38.9343,-0.0000,-0.0000,-0.0000,0.0000,-0.3405,0.8109,0.0548,1.0000
-0.0967,6.5305,5.9650,-0.0627,-0.1332,0.0929,-15.5762,26.3062,-40.1611,-0.0000,-0.0000,-0.0000,0.0000,-0.3626,0.8440,0.0271,1.0000
-0.6486,6.7516,6.8301,-0.2087,-0.0544,0.1270,-13.0280,25.8926,-38.5483,-0.0000,-0.0000,-0.0000,0.0000,-0.3250,0.7843,0.0092,1.0000
-0.3262,6.3442,6.0160,-0.1575,0.1512,0.0215,-13.1363,26.8066,-39.3356,-0.0000,-0.0000,-0.0000,0.0000,-0.3278,0.7861,0.0605,1.0000
-0.1211,6.2337,5.1565,-0.0340,-0.0501,-0.2299,-11.8378,26.9821,-38.6871,-0.0000,-0.0000,-0.0000,0.0000,-0.3047,0.8189,0.0555,1.0000
-0.7950,6.1642,9.2434,0.3900,-0.0629,-0.2203,-13.6948,26.9806,-39.4394,-0.0000,-0.0000,-0.0000,0.0000,-0.3340,0.7558,0.0943,1.0000
0.4168,6.5505,5.6354,0.3400,-0.2344,-0.2512,-13.6276,27.4185,-40.7974,-0.0000,-0.0000,-0.0000,0.0000,-0.3655,0.8368,0.1397,1.0000
-0.4184,5.8602,5.1569,0.1706,-0.0107,-0.4014,-17.3416,28.5812,-40.8981,-0.0000,-0.0000,-0.0000,0.0000,-0.4593,0.8488,0.1163,1.0000
-0.1215,6.8849,4.7814,-0.2779,-0.1247,0.1654,-19.0018,29.8019,-41.9632,-0.0000,-0.0000,-0.0000,0.0000,-0.5559,0.8729,0.0784,1.0000
-0.3417,6.9156,6.9993,0.2270,-0.1364,-0.2586,-29.6051,27.0416,-39.9811,-0.0000,-0.0000,-0.0000,0.0000,-0.6559,0.8724,0.0474,1.0000
0.3965,6.6758,5.3628,0.0513,-0.1460,-0.0179,-29.8843,28.4088,-39.0762,-0.0000,-0.0000,-0.0000,0.0000,-0.6417,0.8605,0.0461,1.0000
0.0537,6.2249,6.0986,0.0694,-0.0863,0.0194,-27.3621,29.4098,-42.3172,-0.0000,-0.0000,-0.0000,0.0000,-0.5653,0.8262,0.0019,1.0000
-1.4044,5.5940,5.7495,0.1280,0.0745,-0.1191,-30.1605,25.5661,-40.7318,-0.0000,-0.0000,-0.0000,0.0000,-0.5944,0.8376,0.0003,1.0000
-1.1194,6.7380,6.6712,0.2079,-0.0767,-0.2235,-28.1418,26.5366,-40.4037,-0.0000,-0.0000,-0.0000,0.0000,-0.5362,0.8260,0.0427,1.0000
-3.1270,6.2177,4.4207,0.0310,0.1416,0.0237,-26.1795,24.2813,-39.3372,-0.0000,-0.0000,-0.0000,0.0000,-0.6274,0.9081,0.1926,1.0000
-3.5352,6.2500,5.1657,-0.0925,0.4548,0.3283,-17.0822,23.9349,-38.2751,-0.0000,-0.0000,-0.0000,0.0000,-0.5173,0.9471,0.3230,1.0000
-2.0049,6.2692,5.3764,0.0502,0.4314,0.2293,-3.3447,21.6919,-29.1382,-0.0000,-0.0000,-0.0000,0.0000,-0.2526,0.9571,0.3997,1.0000
-2.6402,6.6586,5.0923,-0.0233,0.3238,0.0929,4.3747,18.7363,-21.8582,-0.0000,-0.0000,-0.0000,0.0000,-0.0165,0.9858,0.4411,1.0000
-2.0504,6.9647,5.4007,-0.0126,0.2120,-0.0189,10.1685,10.9924,-9.2316,-0.0000,-0.0000,-0.0000,0.0000,0.2847,1.0170,0.4760,1.0000
-1.0564,7.0413,4.3632,0.0055,0.2833,0.2943,12.4146,8.0811,-0.6424,-0.0000,-0.0000,-0.0000,0.0000,0.6299,1.0399,0.4396,1.0000
-2.4825,6.4699,4.8900,0.0310,0.4048,0.3315,8.1421,4.3869,8.5648,-0.0000,-0.0000,-0.0000,0.0000,0.7338,1.0441,0.5391,1.0000
-2.2854,6.9978,6.1960,0.0534,0.3323,0.3209,2.2247,-2.1225,17.6819,-0.0000,-0.0000,-0.0000,0.0000,1.1700,1.0942,0.4787,1.0000
-2.2575,6.7181,3.6151,-0.1788,0.3014,0.1462,-8.3694,-3.1784,23.5977,-0.0000,-0.0000,-0.0000,0.0000,2.0813,1.1019,0.4842,1.0000
-3.6900,6.4938,4.6071,-0.1426,0.4580,0.4210,-23.7457,-9.1080,27.4948,-0.0000,-0.0000,-0.0000,0.0000,2.9637,1.1080,0.5207,1.0000
-3.1801,6.3925,4.9758,-0.1075,0.4271,0.2058,-37.4756,-11.2015,24.4461,-0.0000,-0.0000,-0.0000,0.0000,-2.7419,1.0949,0.5594,1.0000
-0.6171,7.4012,3.3649,-0.3802,0.1598,0.1366,-43.4753,-3.5721,17.4026,-0.0000,-0.0000,-0.0000,0.0000,-2.2638,1.1286,0.3560,1.0000
-0.3928,7.3027,4.9965,-0.0936,-0.0778,0.0024,-44.7830,-5.2948,12.3398,-0.0000,-0.0000,-0.0000,0.0000,-2.1487,1.0600,0.2863,1.0000
-0.6430,6.9415,4.1442,-0.1991,-0.1556,-0.0903,-48.9441,-2.7435,13.6810,-0.0000,-0.0000,-0.0000,0.0000,-2.0792,1.0745,0.2552,1.0000
-0.3721,7.2887,3.6785,-0.0457,-0.0789,0.0205,-44.7952,-2.7695,13.3728,-0.0000,-0.0000,-0.0000,0.0000,-2.0547,1.0575,0.1912,1.0000
0.2680,7.7791,4.4778,0.0278,-0.2759,-0.2288,-42.2424,-3.8528,16.3528,-0.0000,-0.0000,-0.0000,0.0000,-2.0606,1.0476,0.1167,1.0000
0.0537,7.2488,2.8589,-0.4451,-0.0437,0.1398,-36.7020,-5.1132,19.3848,-0.0000,-0.0000,-0.0000,0.0000,-2.0905,1.0625,0.0051,1.0000
0.3111,7.2668,5.6860,0.1450,-0.1790,-0.1265,-34.0958,-6.4194,21.4676,-0.0000,-0.0000,-0.0000,0.0000,-2.2313,1.0542,0.0614,1.0000
-0.9886,5.7009,4.6964,-0.0467,-0.2248,-0.2959,-32.9285,-5.0751,22.2412,-0.0000,-0.0000,-0.0000,0.0000,-2.3040,1.0876,0.0849,1.0000
-0.6402,6.6299,4.3537,-0.1906,0.0106,-0.0605,-32.2891,-6.9473,21.6736,-0.0000,-0.0000,-0.0000,0.0000,-2.1845,1.0211,0.0139,1.0000
-0.2097,6.5565,4.5109,0.2249,-0.0533,-0.0647,-33.7204,-6.2576,22.6624,-0.0000,-0.0000,-0.0000,0.0000,-2.1097,1.0190,-0.0315,1.0000
-0.0492,6.9192,4.8577,-0.0276,0.2492,0.1409,-36.3190,-5.3406,21.3699,-0.0000,-0.0000,-0.0000,0.0000,-2.0841,1.0147,-0.0040,1.0000
-0.0429,6.6143,5.1920,-0.2449,0.2844,-0.2128,-37.2955,-12.3306,17.2684,-0.0000,-0.0000,-0.0000,0.0000,-2.0546,0.9460,0.0559,1.0000
-0.6546,5.6172,6.3848,0.3666,-0.3367,-0.2746,-36.1725,-15.5945,14.7751,-0.0000,-0.0000,-0.0000,0.0000,-2.0991,0.8193,0.1142,1.0000
-1.0297,5.6271,5.7770,-0.3652,0.2429,-0.1137,-35.4507,-19.6854,15.9592,-0.0000,-0.0000,-0.0000,0.0000,-2.1841,0.8109,0.1057,1.0000
-0.8725,6.1774,7.5364,0.0001,0.0543,0.3070,-35.7239,-16.8182,13.8672,-0.0000,-0.0000,-0.0000,0.0000,-2.1798,0.8050,0.1212,1.0000
-0.4000,5.6315,6.5188,0.1205,0.0479,-0.0594,-37.0346,-15.8295,16.1987,-0.0000,-0.0000,-0.0000,0.0000,-2.1278,0.8085,0.0789,1.0000
-1.0081,5.7768,6.0376,-0.0638,-0.0373,0.0418,-35.8505,-16.6565,16.6412,-0.0000,-0.0000,-0.0000,0.0000,-2.2016,0.8158,0.0987,1.0000
-0.2428,6.1658,6.8133,0.1216,-0.0032,0.0492,-38.6673,-14.9399,16.1346,-0.0000,-0.0000,-0.0000,0.0000,-2.1526,0.7888,0.0727,1.0000
-0.6761,6.1634,4.5556,-0.2950,-0.0235,0.0897,-38.2233,-14.8407,16.1469,-0.0000,-0.0000,-0.0000,0.0000,-2.1491,0.7779,0.0872,1.0000
0.3079,5.7009,7.7578,0.2643,-0.0171,-0.0093,-37.5198,-14.2776,14.9506,-0.0000,-0.0000,-0.0000,0.0000,-2.1522,0.7659,0.0795,1.0000
-0.5772,5.0030,7.5403,-0.0840,0.0138,0.1920,-36.2289,-15.7394,16.4261,-0.0000,-0.0000,-0.0000,0.0000,-2.1314,0.7303,0.0679,1.0000
3.2248,4.7692,-3.3345,2.6569,-1.2336,0.0844,54.2099,35.7132,21.4615,-0.0000,-0.0000,-0.0000,0.0000,-1.7054,1.3237,-1.4770,1.0000
-2.3325,4.8338,-6.2782,0.4092,-0.0139,-0.5899,59.1705,33.1131,-7.7301,-0.0000,-0.0000,-0.0000,0.0000,-0.9351,0.7907,3.0764,1.0000
-6.5706,0.9756,-7.9210,-0.8297,0.4719,-0.0338,24.9573,59.6039,-27.0615,-0.0000,-0.0000,-0.0000,0.0000,-0.4807,0.3423,2.6779,1.0000
-0.3262,6.9164,-5.2487,-4.3504,7.0339,0.2996,23.5199,45.7687,39.2365,-0.0000,-0.0000,-0.0000,0.0000,-0.4877,1.1877,-2.7765,1.0000
1.1630,7.2504,5.2391,0.2388,0.0692,0.1355,-32.8873,7.2983,41.9724,-0.0000,-0.0000,-0.0000,0.0000,-1.7825,1.1564,-0.6271,1.0000
0.9543,7.5808,3.4403,-0.2534,0.3441,0.0034,-37.7625,6.4087,37.8922,-0.0000,-0.0000,-0.0000,0.0000,-1.7205,1.1654,-0.5372,1.0000
0.6650,7.9958,3.0780,-0.0009,-0.0778,-0.1297,-44.6548,6.5582,31.9046,-0.0000,-0.0000,-0.0000,0.0000,-1.6803,1.1961,-0.4067,1.0000
0.2492,7.7903,3.0927,-0.0648,-0.5188,-0.1414,-40.9363,-2.7313,30.8289,-0.0000,-0.0000,-0.0000,0.0000,-1.9232,1.1586,-0.2183,1.0000
0.1938,7.9148,1.9220,-0.1288,-0.0501,0.0919,-21.7239,2.9633,44.1101,-0.0000,-0.0000,-0.0000,0.0000,-2.1982,1.2191,-0.2890,1.0000
-1.9618,8.1127,-1.1039,1.0100,-1.3508,-0.9415,-7.1259,34.0134,36.2289,-0.0000,-0.0000,-0.0000,0.0000,1.1013,1.3878,2.1949,1.0000
-2.9570,6.8689,-4.7463,-0.2939,0.3100,0.1366,-32.1777,37.6709,25.2914,-0.0000,-0.0000,-0.0000,0.0000,0.9900,1.0002,2.3918,1.0000
-2.3860,7.9299,-4.1597,-0.7360,0.6402,0.3251,-29.5303,33.1161,25.5554,-0.0000,-0.0000,-0.0000,0.0000,1.0263,1.0937,2.5524,1.0000
0.8801,9.5145,3.1027,3.3280,-3.3556,-1.3612,-21.0449,26.0803,36.8439,-0.0000,-0.0000,-0.0000,0.0000,-1.7529,1.5150,-0.5083,0.0000
-3.6366,3.6439,-7.5036,-0.6262,-0.1481,0.3624,9.3964,46.0373,18.6401,-0.0000,-0.0000,-0.0000,0.0000,0.2161,0.5837,2.6663,0.0000
-3.5316,7.6973,-4.1122,-0.2193,-0.3484,0.3667,38.3377,9.4086,28.4424,-0.0000,-0.0000,-0.0000,0.0000,-0.1481,1.2000,2.4290,0.0000
-4.8125,6.2033,-3.7782,-0.2119,-0.2450,0.0823,47.8241,34.2697,17.7811,-0.0000,-0.0000,-0.0000,0.0000,-0.1541,0.8992,2.2966,0.0000
-5.6110,5.8905,-5.5312,0.2036,0.1374,0.1238,45.8527,40.7806,7.0419,-0.0000,-0.0000,-0.0000,0.0000,-0.3676,0.7364,2.3136,0.0000
-6.0375,2.3762,-6.6553,0.2483,-0.3100,-0.5367,33.5983,48.2956,-11.7599,-0.0000,-0.0000,-0.0000,0.0000,-0.4410,0.4078,2.3703,0.0000
-7.1556,1.8742,-7.5555,-0.0542,-0.0181,-0.1319,23.0774,53.3035,-15.4449,-0.0000,-0.0000,-0.0000,0.0000,-0.4015,0.2004,2.3399,0.0000
-6.3568,2.1132,-3.2767,0.6798,-0.2301,-0.7199,2.7145,58.1711,-19.3405,-0.0000,-0.0000,-0.0000,0.0000,-0.2022,0.0679,2.2030,0.0000
-9.1049,-1.5710,-5.3369,-0.0606,0.0969,-0.1137,-15.7501,50.4761,-15.4312,-0.0000,-0.0000,-0.0000,0.0000,-0.0582,-0.1472,2.1854,0.0000
-7.8252,0.6205,-5.8325,-0.0872,0.1683,-0.0243,-3.3386,53.3218,-12.6709,-0.0000,-0.0000,-0.0000,0.0000,-0.0280,0.0087,2.2015,0.0000
-6.8990,-0.7730,-7.6768,-0.2928,0.0106,0.3315,-9.6924,52.5742,-6.6071,-0.0000,-0.0000,-0.0000,0.0000,0.0549,-0.0216,2.4232,0.0000
-6.9525,1.7433,-6.9494,-0.0585,0.0660,0.0652,9.8114,51.7853,0.7355,-0.0000,-0.0000,-0.0000,0.0000,-0.0528,0.2488,2.3464,0.0000
-6.8376,1.5781,-6.0583,0.2302,-0.2163,-0.0743,12.9349,53.7064,1.0437,-0.0000,-0.0000,-0.0000,0.0000,-0.0878,0.2447,2.2998,0.0000
-7.1999,0.8248,-6.8564,0.0182,0.0426,-0.1713,0.8682,53.7430,-3.8635,-0.0000,-0.0000,-0.0000,0.0000,-0.0586,0.1316,2.2431,0.0000
-7.5934,1.9293,-5.7786,0.0907,-0.0022,-0.1446,11.7737,53.4943,-7.5134,-0.0000,-0.0000,-0.0000,0.0000,-0.1970,0.1948,2.1759,0.0000
-11.3682,-3.8348,-6.1038,-0.5570,0.2887,0.6863,-10.9863,48.9471,-11.7371,-0.0000,-0.0000,-0.0000,0.0000,-0.0878,-0.1372,2.1861,0.0000
-8.6372,-1.4505,-5.9865,-0.1309,0.1363,0.3134,-17.1799,46.1395,-8.8638,-0.0000,-0.0000,-0.0000,0.0000,0.1013,-0.1602,2.2289,0.0000
-7.8388,0.4129,-6.3819,0.0268,-0.0544,0.0301,-7.6721,46.4890,-2.3361,-0.0000,-0.0000,-0.0000,0.0000,0.1200,0.0136,2.2780,0.0000
-5.7450,2.5199,-7.6648,-0.3088,0.0159,0.7065,14.7461,47.9462,8.5678,-0.0000,-0.0000,-0.0000,0.0000,-0.0598,0.3682,2.3855,0.0000
-2.2826,8.0608,-1.8469,-0.6742,-0.2046,0.4690,24.3042,-6.5048,39.5844,-0.0000,-0.0000,-0.0000,0.0000,-0.3605,1.2819,2.5280,0.0000
-0.5237,7.8829,-2.7084,0.1194,0.0948,-0.1436,35.7971,-2.9694,31.5811,-0.0000,-0.0000,-0.0000,0.0000,-0.0927,1.2334,2.1348,0.0000
-5.0100,7.9244,-4.3361,0.6393,-0.3601,-0.4589,45.8191,22.9004,19.8563,-0.0000,-0.0000,-0.0000,0.0000,-0.3924,0.8307,2.3173,0.0000
-5.1936,6.1594,-5.3840,0.0971,0.0916,0.5073,48.9044,42.1692,0.8469,-0.0000,-0.0000,-0.0000,0.0000,-0.5533,0.5249,2.4009,0.0000
-5.2666,3.0693,-7.5084,0.2707,-0.0416,-0.5558,28.4332,48.7839,-11.6074,-0.0000,-0.0000,-0.0000,0.0000,-0.3921,0.1992,2.4348,0.0000
-5.9653,-1.2438,-7.7011,-0.0840,-0.1204,-0.1532,-16.5375,46.2830,-16.2567,-0.0000,-0.0000,-0.0000,0.0000,0.0730,-0.2554,2.4950,0.0000
-8.1329,-0.4869,-7.8464,-0.8191,0.1449,0.0322,-5.0797,48.5657,-2.2461,-0.0000,-0.0000,-0.0000,0.0000,0.1737,0.0410,2.4383,0.0000
-2.5707,6.6586,-4.7686,-0.1629,-0.2642,0.5457,35.9100,16.9373,35.0952,-0.0000,-0.0000,-0.0000,0.0000,-0.1761,0.8527,2.5863,0.0000
-3.1581,7.3434,-4.0372,0.0481,-0.0299,-0.1116,36.3968,15.1245,34.7275,-0.0000,-0.0000,-0.0000,0.0000,-0.2396,0.9331,2.5963,0.0000
-6.1473,5.5836,-6.5068,-0.1394,0.5028,0.0077,27.4628,37.2253,21.9284,-0.0000,-0.0000,-0.0000,0.0000,-0.1161,0.6460,2.4680,0.0000
-5.2894,0.6173,-4.9698,-0.2704,0.3281,0.9654,2.3010,48.4940,6.0623,-0.0000,-0.0000,-0.0000,0.0000,0.1210,0.1329,2.4120,0.0000
-5.8943,3.5577,-8.6836,0.1120,-0.1034,-0.0594,15.9317,47.2397,11.1145,-0.0000,-0.0000,-0.0000,0.0000,-0.0267,0.3593,2.3903,0.0000
-6.0028,3.9272,-6.6194,-0.0382,-0.2791,-0.1862,20.5170,46.1884,12.5183,-0.0000,-0.0000,-0.0000,0.0000,-0.0714,0.3896,2.3615,0.0000
-6.6752,2.2214,-6.2826,0.6499,-0.5476,-0.0807,4.8126,48.7427,4.4769,-0.0000,-0.0000,-0.0000,0.0000,0.0665,0.1822,2.3252,0.0000
-6.7067,2.9297,-7.0607,-0.0840,-0.2035,0.0439,10.1044,47.3007,6.2851,-0.0000,-0.0000,-0.0000,0.0000,-0.0005,0.2531,2.3855,0.0000
-7.0846,1.6188,-5.4227,-0.3163,0.4410,0.3337,13.3133,46.7560,5.9769,-0.0000,-0.0000,-0.0000,0.0000,-0.0410,0.2339,2.3332,0.0000
-8.5702,2.4269,-6.0567,0.0119,-0.2077,-0.2970,6.7429,48.2498,3.5828,-0.0000,-0.0000,-0.0000,0.0000,-0.0323,0.2124,2.3177,0.0000
-6.5611,2.3048,-7.0256,0.0246,0.2961,-0.2352,2.8091,48.5947,3.8315,-0.0000,-0.0000,-0.0000,0.0000,0.0124,0.1392,2.3123,0.0000
-7.2394,1.4971,-6.7610,0.0289,0.0990,-0.0924,2.2415,49.0509,2.8244,-0.0000,-0.0000,-0.0000,0.0000,0.0442,0.1391,2.3591,0.0000
-6.6062,1.3579,-7.5076,-0.0840,-0.0725,-0.0328,1.6220,48.1003,4.3030,-0.0000,-0.0000,-0.0000,0.0000,0.0332,0.1168,2.3443,0.0000
-5.9218,1.0622,-6.8548,-0.0680,-0.0203,-0.1723,0.8514,49.1394,4.6402,-0.0000,-0.0000,-0.0000,0.0000,0.0367,0.1074,2.3811,0.0000
-7.1911,1.3275,-8.5770,-0.0478,0.0905,0.0727,-0.8102,48.9868,1.7090,-0.0000,-0.0000,-0.0000,0.0000,0.0633,0.0791,2.3600,0.0000
-6.9980,-0.2842,-7.7869,0.0097,-0.1960,-0.0786,-9.8022,46.0602,0.7858,-0.0000,-0.0000,-0.0000,0.0000,0.1596,-0.0229,2.3790,0.0000
-7.2594,-0.7434,-7.3213,-0.0531,0.0543,0.0716,-13.2446,45.9427,3.1036,-0.0000,-0.0000,-0.0000,0.0000,0.2216,-0.0425,2.4088,0.0000
-6.4485,1.7366,-6.7522,-0.0372,0.1385,0.0961,-2.4139,46.7819,5.9296,-0.0000,-0.0000,-0.0000,0.0000,0.1459,0.1058,2.3960,0.0000
-6.6604,1.0203,-6.9897,-0.0680,-0.1215,0.0961,-4.9606,42.7856,7.0557,-0.0000,-0.0000,-0.0000,0.0000,0.1847,0.0962,2.4223,0.0000
-6.0475,1.6156,-7.9936,-0.0158,-0.2205,-0.0914,-1.8005,43.2922,8.4564,-0.0000,-0.0000,-0.0000,0.0000,0.1834,0.1482,2.4436,0.0000
-3.4566,4.5729,-5.9849,-0.7232,-0.1375,0.1963,8.5876,38.2797,29.8584,-0.0000,-0.0000,-0.0000,0.0000,0.2106,0.5962,2.4815,0.0000
0.1750,6.6455,4.3397,-0.0180,-0.0948,-0.6900,-59.5840,13.2050,-23.5596,-0.0000,-0.0000,-0.0000,0.0000,-1.4164,1.2367,-0.1857,0.0000
1.4212,4.9168,6.5891,-0.0244,0.3057,0.0439,-58.6197,7.5455,-10.3867,-0.0000,-0.0000,-0.0000,0.0000,-1.4214,0.8684,-0.2666,0.0000
-1.5508,5.5784,7.9334,0.8310,-0.6051,-0.1734,-59.1858,5.8868,-18.5226,-0.0000,-0.0000,-0.0000,0.0000,-1.3959,0.8317,-0.1035,0.0000
-0.2280,6.2660,5.6801,-0.0467,0.5560,-0.2299,-58.4030,0.8713,-17.0593,-0.0000,-0.0000,-0.0000,0.0000,-1.5674,0.8209,0.0561,0.0000
0.0174,6.0896,6.6122,0.1940,-0.0405,-0.0136,-57.9315,4.2831,-9.2102,-0.0000,-0.0000,-0.0000,0.0000,-1.4117,0.8396,-0.1322,1.0000
1.1024,8.4543,4.8596,0.3719,-0.5636,-0.1393,-60.1151,6.6422,-8.7860,-0.0000,-0.0000,-0.0000,0.0000,-1.3317,0.9475,-0.1962,1.0000
-1.0712,4.8973,-16.4747,-0.8712,-0.9801,0.0865,27.3743,41.5176,10.6766,-0.0000,-0.0000,-0.0000,0.0000,0.1190,0.6414,2.7175,1.0000
-5.5415,3.1651,-7.2965,0.0300,-0.2930,-0.3747,19.6487,45.6253,0.9079,-0.0000,-0.0000,-0.0000,0.0000,0.0533,0.4508,2.5671,1.0000
-4.4669,4.2137,-7.4035,-0.1341,0.1715,-0.0573,21.8689,40.2252,1.6617,-0.0000,-0.0000,-0.0000,0.0000,-0.0502,0.4330,2.4718,1.0000
-5.9254,3.3339,-6.3017,-0.1171,-0.0789,-0.3140,16.5451,42.2287,2.7969,-0.0000,-0.0000,-0.0000,0.0000,0.0075,0.3802,2.4372,1.0000
-7.6528,2.8451,-6.5683,-0.1000,0.1757,0.1505,7.1213,38.7772,2.5497,-0.0000,-0.0000,-0.0000,0.0000,0.0682,0.3102,2.4111,1.0000
-5.8755,3.5318,-7.2538,-0.1234,0.0692,0.0354,11.9339,34.8663,7.6279,-0.0000,-0.0000,-0.0000,0.0000,0.0233,0.4079,2.4740,1.0000
-4.7514,4.5489,-7.0826,-0.1266,0.1097,0.0812,14.4867,29.7821,13.6826,-0.0000,-0.0000,-0.0000,0.0000,-0.0727,0.5044,2.5749,1.0000
-4.5791,3.4999,-8.1712,-0.1107,-0.0480,-0.2469,1.1246,29.8752,11.1816,-0.0000,-0.0000,-0.0000,0.0000,0.1471,0.3813,2.5250,1.0000
-5.7331,1.5259,-7.6744,0.0001,-0.1066,-0.2117,-12.4435,26.8997,5.2887,-0.0000,-0.0000,-0.0000,0.0000,0.3554,0.1595,2.5070,1.0000
-6.8611,0.9884,-6.6892,0.1248,0.0703,-0.2277,-20.7764,20.6772,4.5837,-0.0000,-0.0000,-0.0000,0.0000,0.6406,0.0718,2.4273,1.0000
-8.3304,0.5063,-6.5396,-0.0894,0.1001,0.1739,-21.1090,13.9389,5.9113,-0.0000,-0.0000,-0.0000,0.0000,0.8542,0.1134,2.4702,1.0000
-5.9378,3.0422,-7.5499,-0.2129,0.1566,0.2421,-11.0947,13.2584,7.6279,-0.0000,-0.0000,-0.0000,0.0000,0.8971,0.3392,2.5039,1.0000
-3.9243,5.4164,-5.5607,0.0342,0.1012,0.3656,-6.4514,9.5276,15.1581,-0.0000,-0.0000,-0.0000,0.0000,0.7392,0.6031,2.6531,1.0000
-4.4865,4.8793,-6.7087,0.4923,0.0554,-0.2746,-7.2418,12.8540,14.1495,-0.0000,-0.0000,-0.0000,0.0000,0.7527,0.5481,2.6839,1.0000
-5.1784,4.1830,-6.1772,0.0033,0.1033,-0.0360,-8.3069,9.6237,10.5804,-0.0000,-0.0000,-0.0000,0.0000,0.8840,0.5413,2.5247,1.0000
-4.6816,4.2604,-7.1214,0.0332,-0.1886,-0.2586,-7.9926,8.5846,9.5947,-0.0000,-0.0000,-0.0000,0.0000,0.9690,0.4762,2.4712,1.0000
-6.5507,3.5418,-6.2574,0.0193,0.0618,-0.0179,-7.8735,4.2725,6.8771,-0.0000,-0.0000,-0.0000,0.0000,1.0697,0.4158,2.3467,1.0000
-5.8524,4.3602,-6.5120,0.0854,0.1118,-0.0775,-7.9254,3.5492,5.6198,-0.0000,-0.0000,-0.0000,0.0000,1.1495,0.4295,2.3937,1.0000
-5.6381,4.4799,-6.2183,-0.0222,0.2769,0.1451,-9.5596,0.5219,4.3961,-0.0000,-0.0000,-0.0000,0.0000,1.2027,0.4645,2.4633,1.0000
-4.9450,4.4384,-6.7319,-0.0361,-0.0224,0.1355,-9.9152,0.3372,5.7098,-0.0000,-0.0000,-0.0000,0.0000,1.1453,0.5531,2.5583,1.0000
-4.3668,4.9879,-6.5643,-0.0158,-0.0554,-0.0211,-8.9569,1.0376,5.5084,-0.0000,-0.0000,-0.0000,0.0000,1.1183,0.6204,2.5892,1.0000
-6.5942,2.2206,-8.0922,-0.1266,0.3377,0.1632,-11.8881,-4.2236,2.7313,-0.0000,-0.0000,-0.0000,0.0000,1.3372,0.4010,2.4823,1.0000
-5.7135,3.4169,-6.9394,0.0555,-0.1055,-0.6815,-11.7157,-4.1138,0.6683,-0.0000,-0.0000,-0.0000,0.0000,1.4132,0.3793,2.4682,1.0000
-6.2486,3.3171,-7.2698,-0.2012,-0.0373,0.2090,-11.4670,-6.8970,0.4089,-0.0000,-0.0000,-0.0000,0.0000,1.5493,0.3445,2.4458,1.0000
-4.9586,5.0721,-4.4175,0.1162,0.0170,-0.0583,-10.1746,-6.6391,-0.3632,-0.0000,-0.0000,-0.0000,0.0000,1.4499,0.5476,2.5156,1.0000
-6.9445,3.6395,-6.7056,-0.0606,0.0245,-0.0168,-9.4086,-11.8622,-5.1407,-0.0000,-0.0000,-0.0000,0.0000,1.6696,0.3896,2.3736,1.0000
-6.8983,4.0214,-3.6900,-0.1895,0.3547,0.3486,-7.6538,-10.2676,-4.7287,-0.0000,-0.0000,-0.0000,0.0000,1.7885,0.4783,2.3721,1.0000
-4.7714,4.4029,-6.6050,0.0087,0.0841,0.0780,-11.1374,-9.5978,-4.5547,-0.0000,-0.0000,-0.0000,0.0000,1.8545,0.5469,2.5499,1.0000
-3.4394,4.2932,-8.7215,-0.4068,0.0351,0.0791,-9.9426,-8.1009,-5.1102,-0.0000,-0.0000,-0.0000,0.0000,1.9506,0.5648,2.6046,1.0000
-3.0053,4.5649,-6.6585,0.2526,0.0703,-0.2309,-10.0601,-9.3460,-6.8649,-0.0000,-0.0000,-0.0000,0.0000,1.9184,0.6224,2.6137,1.0000
-3.7682,3.9967,-6.7163,0.1045,0.1097,0.0950,-9.1217,-7.9712,-7.7164,-0.0000,-0.0000,-0.0000,0.0000,1.9804,0.5607,2.6233,1.0000
-4.8464,2.0777,-9.1321,0.0726,0.1768,0.2112,-10.1181,-9.6329,-4.7028,-0.0000,-0.0000,-0.0000,0.0000,1.9924,0.4485,2.5710,1.0000
-3.5851,4.8019,-7.1046,0.0044,0.0042,0.0429,-11.7996,-7.6019,-3.6896,-0.0000,-0.0000,-0.0000,0.0000,1.8643,0.5158,2.6916,1.0000
-3.3269,5.2516,-6.4234,0.0768,-0.1342,0.0184,-10.4782,-6.9611,-2.2491,-0.0000,-0.0000,-0.0000,0.0000,1.7854,0.5822,2.7242,1.0000
-2.5580,4.8594,-6.0324,0.2451,0.0905,-0.2341,-8.0078,-4.6188,-1.3412,-0.0000,-0.0000,-0.0000,0.0000,1.6933,0.6291,2.7415,1.0000
-5.4789,3.9588,-7.1026,-0.0041,-0.2397,-0.2256,-10.5728,-6.1584,-3.3722,-0.0000,-0.0000,-0.0000,0.0000,1.9010,0.4091,2.5852,1.0000
-4.7538,3.3750,-7.9294,-0.1607,0.0106,0.1132,-9.4727,-10.1654,-3.8269,-0.0000,-0.0000,-0.0000,0.0000,1.9833,0.3610,2.5523,1.0000
-4.4314,4.2113,-7.6006,-0.1320,0.0096,0.1792,-8.1497,-9.7702,-4.3396,-0.0000,-0.0000,-0.0000,0.0000,1.9159,0.4609,2.5938,1.0000
-4.3496,4.5090,-7.4158,-0.0446,0.0064,0.0492,-10.6506,-7.5516,-4.1122,-0.0000,-0.0000,-0.0000,0.0000,1.8414,0.5411,2.6311,1.0000
-3.4271,4.6623,-6.8109,0.0427,-0.0213,-0.0104,-10.0189,-6.8604,-4.0649,-0.0000,-0.0000,-0.0000,0.0000,1.8027,0.5685,2.6456,1.0000
-4.3752,4.3574,-7.7921,-0.2353,-0.0693,-0.1734,-9.0149,-5.3741,-2.8229,-0.0000,-0.0000,-0.0000,0.0000,1.8419,0.5289,2.5908,1.0000
-4.6174,4.2656,-7.3640,0.0960,0.0106,-0.2607,-10.0021,-8.7570,-4.3228,-0.0000,-0.0000,-0.0000,0.0000,1.9294,0.4303,2.5260,1.0000
-5.1633,3.7628,-5.2207,0.5232,-0.5945,0.3166,-8.5281,-7.4890,-1.3992,-0.0000,-0.0000,-0.0000,0.0000,1.9042,0.4673,2.5618,1.0000
-3.7487,4.4835,-7.7015,-0.0244,-0.0362,0.2218,-10.0021,-7.9803,-2.6733,-0.0000,-0.0000,-0.0000,0.0000,1.8848,0.4786,2.6561,1.0000
-5.1481,2.7357,-6.8392,0.1738,0.5827,0.3497,-10.1639,-8.8760,-3.8055,-0.0000,-0.0000,-0.0000,0.0000,1.9556,0.4143,2.6247,1.0000
-3.6641,4.3035,-7.4318,-0.1138,0.1342,0.1707,-9.3643,-7.9102,-2.3575,-0.0000,-0.0000,-0.0000,0.0000,1.8711,0.5089,2.7228,1.0000
-3.6805,3.7477,-7.6421,-0.0553,0.0096,-0.0040,-10.1547,-9.5383,-6.1295,-0.0000,-0.0000,-0.0000,0.0000,1.9720,0.4068,2.6518,1.0000
-2.6880,5.1152,-7.5331,-0.1778,-0.1215,0.2357,-9.0302,-6.5933,-1.5686,-0.0000,-0.0000,-0.0000,0.0000,1.8400,0.5622,2.8188,1.0000
-3.1697,4.5833,-7.9465,-0.1021,0.2365,0.1196,-9.7458,-4.8569,2.0325,-0.0000,-0.0000,-0.0000,0.0000,1.7782,0.6030,2.8026,1.0000
-2.5983,5.3255,-7.7047,0.1312,-0.1833,-0.3183,-10.5606,-5.1025,-1.3062,-0.0000,-0.0000,-0.0000,0.0000,1.7863,0.5736,2.7771,1.0000
-5.2020,3.4217,-6.4127,0.0353,0.0628,0.1366,-9.9457,-11.4487,-4.6509,-0.0000,-0.0000,-0.0000,0.0000,2.0204,0.3746,2.5999,1.0000
-5.2455,3.6878,-6.9593,-0.1693,0.2205,0.0887,-9.7122,-10.9055,-6.8893,-0.0000,-0.0000,-0.0000,0.0000,2.2332,0.3433,2.5460,1.0000
-5.8975,2.6009,-7.9569,-0.1405,0.4421,0.6756,-10.5209,-13.3133,-6.3263,-0.0000,-0.0000,-0.0000,0.0000,2.4930,0.3217,2.5433,1.0000
-3.5440,5.6447,-6.3915,-0.2364,0.1172,0.5840,-5.6641,-4.8660,3.5706,-0.0000,-0.0000,-0.0000,0.0000,2.1320,0.7141,2.7495,1.0000
-1.6597,2.5941,-10.0471,-0.3961,-0.2418,0.3156,-11.9751,-5.0400,2.3926,-0.0000,-0.0000,-0.0000,0.0000,2.2556,0.5748,2.7622,1.0000
-1.4854,5.3945,-6.8289,-0.1202,0.0010,0.2932,-12.0712,-2.8137,10.6094,-0.0000,-0.0000,-0.0000,0.0000,1.8211,0.7390,2.9357,1.0000
-0.1981,5.8649,-5.9282,-0.0201,-0.1513,0.0620,-14.4623,-9.7885,19.2520,-0.0000,-0.0000,-0.0000,0.0000,1.2622,0.9272,-3.1273,1.0000
-2.5939,6.1854,-6.2303,0.0843,-0.4389,-0.0008,-2.0859,5.5923,19.9936,-0.0000,-0.0000,-0.0000,0.0000,1.3048,0.7687,2.7519,0.0000
-4.6916,2.3447,-5.8089,1.1027,0.0756,-0.5825,-7.3441,-2.4979,8.0521,-0.0000,-0.0000,-0.0000,0.0000,1.3054,0.5447,2.5740,0.0000
-5.4693,1.1340,-6.3632,0.4827,0.1331,-0.6677,-22.6273,-1.4343,-0.1923,-0.0000,-0.0000,-0.0000,0.0000,1.5986,0.0972,2.5519,0.0000
-7.3815,-4.4505,-9.3065,-0.1288,-0.1172,-0.2117,-24.6323,-28.0396,10.5362,-0.0000,-0.0000,-0.0000,0.0000,2.1953,-0.4224,2.6090,0.0000
-6.6153,-5.7366,-7.6161,-0.1660,-0.1044,-0.2970,-12.6053,-33.5114,12.0193,-0.0000,-0.0000,-0.0000,0.0000,2.5310,-0.5277,2.6433,0.0000
-8.2713,-4.3483,-6.9889,-0.0776,0.0767,1.0474,-16.0538,-27.0676,-1.4618,-0.0000,-0.0000,-0.0000,0.0000,2.5695,-0.2642,2.5093,0.0000
-3.6090,6.2392,-6.0240,-0.5677,1.3688,0.0407,-9.0103,-11.0565,-7.2678,-0.0000,-0.0000,-0.0000,0.0000,2.1037,0.6493,2.6254,0.0000
-1.6214,8.1502,0.0700,-0.2758,0.6402,0.6064,2.0782,13.9511,-5.7114,-0.0000,-0.0000,-0.0000,0.0000,1.0326,1.4979,-0.5769,0.0000
0.5741,7.4527,6.5176,0.1280,-0.2472,-0.1052,2.1347,14.4714,-28.6957,-0.0000,-0.0000,-0.0000,0.0000,0.7043,0.9703,-0.2967,0.0000
0.2460,7.3585,4.3928,0.5189,0.2695,-0.1808,5.9341,17.1265,-25.2518,-0.0000,-0.0000,-0.0000,0.0000,0.4937,1.0195,-0.0198,0.0000
0.7205,6.2221,5.7100,-0.1607,0.9023,-0.2320,0.6302,14.1449,-25.5249,-0.0000,-0.0000,-0.0000,0.0000,0.2754,0.9391,-0.0671,0.0000
0.4248,5.8410,5.8225,0.4518,-0.5476,-0.0168,-0.5463,9.3399,-20.6940,-0.0000,-0.0000,-0.0000,0.0000,0.2949,0.9857,-0.1389,1.0000
-7.2107,3.1435,-7.8983,0.5924,-0.2035,0.8535,-6.3187,-12.4039,-9.8480,-0.0000,-0.0000,-0.0000,0.0000,1.7566,0.8289,2.6832,1.0000
-1.9303,5.6642,-6.6525,-0.0467,-0.0629,0.1302,-7.2739,-8.1406,-5.3741,-0.0000,-0.0000,-0.0000,0.0000,1.5696,0.8406,2.9040,1.0000
-2.1913,6.2871,-5.6038,0.1610,-0.3196,-0.3012,-9.3933,-9.9670,-7.7850,-0.0000,-0.0000,-0.0000,0.0000,1.6525,0.8416,2.8304,1.0000
-3.1948,5.5170,-6.3692,-0.0574,-0.0352,0.0173,-6.7795,-10.7361,-9.6939,-0.0000,-0.0000,-0.0000,0.0000,1.9992,0.7515,2.7535,1.0000
-0.7088,6.4172,7.0655,0.5253,0.1140,-0.0328,4.5029,13.3972,-15.0330,-0.0000,-0.0000,-0.0000,0.0000,0.6828,0.8411,0.0478,1.0000
-1.0592,5.9156,5.9785,-0.3578,0.0596,-0.1819,4.9179,13.7726,-23.4436,-0.0000,-0.0000,-0.0000,0.0000,0.5757,0.8486,-0.0116,1.0000
0.3135,6.3422,6.1050,0.1951,-0.3260,-0.0008,3.4943,14.5355,-25.2335,-0.0000,-0.0000,-0.0000,0.0000,0.3612,0.8533,0.0032,1.0000
-0.1618,6.2751,5.4781,-0.1277,-0.0682,-0.0573,3.5950,14.5340,-27.3193,-0.0000,-0.0000,-0.0000,0.0000,0.2139,0.8588,-0.0138,1.0000
-0.9902,6.6750,5.5699,-0.4526,0.0927,-0.0157,1.9653,16.6718,-27.9709,-0.0000,-0.0000,-0.0000,0.0000,0.0346,0.8428,0.0993,1.0000
-1.1099,6.1024,5.9195,0.0182,-0.3377,0.0876,-0.6088,15.8203,-26.8799,-0.0000,-0.0000,-0.0000,0.0000,-0.0200,0.8512,0.0801,1.0000
0.2021,6.5744,-3.2375,0.9322,-1.5702,0.3209,3.2394,1.5457,-12.0544,-0.0000,-0.0000,-0.0000,0.0000,1.1591,1.3109,-1.8073,1.0000
0.9424,8.1011,-1.5664,0.0236,-0.0576,0.0301,-4.3640,-3.4454,-8.6838,-0.0000,-0.0000,-0.0000,0.0000,1.2468,1.2964,-2.1185,1.0000
4.9997,6.5920,1.8936,-1.0641,0.0223,-0.5334,-3.4149,1.5732,-6.9626,-0.0000,-0.0000,-0.0000,0.0000,1.1895,1.3320,-2.0862,1.0000
0.3259,8.1179,-0.4858,-0.3333,-0.4421,-0.0882,-6.6284,-6.8726,-3.7582,-0.0000,-0.0000,-0.0000,0.0000,0.8586,1.5119,-2.1151,1.0000
1.8625,6.8821,6.5388,-1.5733,1.7587,1.1561,-5.8319,18.3746,-25.8911,-0.0000,-0.0000,-0.0000,0.0000,-0.3055,1.1045,-0.2176,1.0000
-0.2831,4.6423,7.8879,-0.0808,0.0692,0.1355,8.1131,22.9904,-30.6931,-0.0000,-0.0000,-0.0000,0.0000,0.1275,0.6301,-0.0040,1.0000
-1.5720,4.9647,6.9051,0.1333,0.0714,0.1281,9.4574,18.8858,-27.9892,-0.0000,-0.0000,-0.0000,0.0000,0.2795,0.6613,-0.0556,1.0000
-1.6394,5.8777,7.0000,0.0470,0.1928,-0.0189,8.8699,14.2792,-22.3999,-0.0000,-0.0000,-0.0000,0.0000,0.3591,0.8345,-0.0111,1.0000
-2.4359,6.6231,5.3074,0.1109,0.2642,0.0120,9.4727,14.4714,-9.2850,-0.0000,-0.0000,-0.0000,0.0000,0.4078,1.0147,0.1960,1.0000
-1.8596,7.3150,4.6757,0.1035,0.4921,0.1313,9.7229,5.8380,6.3705,-0.0000,-0.0000,-0.0000,0.0000,0.7685,1.0707,0.3674,1.0000
-0.8653,7.1917,4.1063,0.0172,0.2013,0.2772,1.5839,-1.8341,16.6641,-0.0000,-0.0000,-0.0000,0.0000,1.2895,1.1185,0.3885,1.0000
0.1950,7.4499,4.7866,-0.0233,-0.0490,-0.0850,2.4246,-4.6066,18.5913,-0.0000,-0.0000,-0.0000,0.0000,1.7916,1.0610,0.3005,1.0000
1.0924,6.8163,5.1665,0.1205,-0.1225,-0.0530,1.0941,-1.2650,17.3264,-0.0000,-0.0000,-0.0000,0.0000,2.1781,1.0775,0.2508,1.0000
1.3538,6.7077,5.5404,0.0491,-0.3611,-0.2948,7.3608,-0.7126,12.4573,-0.0000,-0.0000,-0.0000,0.0000,2.1639,0.9877,0.1626,1.0000
1.4420,7.1063,4.8341,-0.0148,-0.3409,0.0013,11.5753,5.2765,-2.2751,-0.0000,-0.0000,-0.0000,0.0000,1.9085,0.9243,-0.0003,1.0000
0.2033,5.9436,6.1122,-0.0691,-0.4538,-0.3119,8.9645,11.8942,-13.0737,-0.0000,-0.0000,-0.0000,0.0000,1.1210,0.8320,0.0667,1.0000
-1.3086,7.1251,4.8193,0.2505,-0.1428,-0.0583,2.4338,21.2738,-26.0071,-0.0000,-0.0000,-0.0000,0.0000,0.4592,0.9596,-0.0058,1.0000
-0.8948,6.0844,6.0364,0.3314,-0.1279,-0.1904,4.2511,18.0115,-25.2594,-0.0000,-0.0000,-0.0000,0.0000,0.2569,0.8082,0.0531,1.0000
-0.7687,6.2388,6.0172,0.3410,-0.1076,-0.0509,3.3279,20.2835,-27.5650,-0.0000,-0.0000,-0.0000,0.0000,0.1488,0.8362,-0.0010,1.0000
-1.6314,5.9240,6.7570,0.0321,0.1033,-0.0104,2.8824,17.4545,-26.1642,-0.0000,-0.0000,-0.0000,0.0000,0.0910,0.8240,0.0750,1.0000
-1.5823,5.9112,5.7954,-0.1160,0.0277,0.1867,6.4316,17.5186,-26.3199,-0.0000,-0.0000,-0.0000,0.0000,0.0888,0.8020,0.1107,1.0000
-0.4020,6.1459,6.3476,-0.2129,0.0362,0.1547,6.3812,18.5272,-27.1042,-0.0000,-0.0000,-0.0000,0.0000,0.1038,0.7981,0.1175,1.0000
-0.6973,6.2037,6.9450,-0.1234,-0.0799,-0.0051,7.3654,18.3212,-26.9257,-0.0000,-0.0000,-0.0000,0.0000,0.1084,0.7634,0.1216,1.0000
-0.8601,5.9859,7.8799,0.0491,0.0447,-0.0711,7.6294,17.9398,-25.1022,-0.0000,-0.0000,-0.0000,0.0000,0.0919,0.7582,0.1296,1.0000
-1.0815,6.2712,5.6629,-0.1522,0.0266,-0.1766,7.7301,17.4423,-27.3682,-0.0000,-0.0000,-0.0000,0.0000,0.0768,0.7578,0.1296,1.0000
-1.0532,6.1762,6.0883,-0.1309,-0.1129,0.0940,5.5435,19.4824,-26.4023,-0.0000,-0.0000,-0.0000,0.0000,0.0468,0.7687,0.1843,1.0000
-0.8948,5.4252,6.5887,0.0598,-0.0085,-0.0040,5.6900,16.5497,-24.0463,-0.0000,-0.0000,-0.0000,0.0000,0.0996,0.7379,0.1458,1.0000
-1.1462,5.7488,6.2926,0.0417,-0.1076,0.1302,6.4285,17.9382,-26.2375,-0.0000,-0.0000,-0.0000,0.0000,0.1166,0.7476,0.1266,1.0000
1.5656,6.7700,1.7153,3.0159,-2.2381,1.6993,9.7824,8.1177,-20.3506,-0.0000,-0.0000,-0.0000,0.0000,0.7896,1.1793,-0.8724,1.0000
-0.0285,2.7389,-9.6101,-0.5357,0.4932,-0.1414,-5.5695,-13.2813,-11.8820,-0.0000,-0.0000,-0.0000,0.0000,1.8300,0.5106,-2.9899,1.0000
2.4312,2.8111,-9.9162,-1.9280,1.4115,-0.8520,-5.7159,-8.7112,-19.3192,-0.0000,-0.0000,-0.0000,0.0000,2.0627,0.5364,-3.0934,1.0000
0.7488,6.2724,6.8113,0.3762,0.1917,-0.2054,11.2549,18.4738,-24.5575,-0.0000,-0.0000,-0.0000,0.0000,0.7752,0.9400,-0.0815,1.0000
0.3175,6.4671,5.8975,0.4081,-0.0533,-0.0424,11.7294,22.2275,-24.8169,-0.0000,-0.0000,-0.0000,0.0000,0.4519,0.8008,0.0795,1.0000
-0.7416,6.0186,6.3987,-0.2939,0.1299,0.0066,6.0394,19.3161,-24.6384,-0.0000,-0.0000,-0.0000,0.0000,0.3394,0.8049,0.0556,1.0000
0.5960,6.7516,5.9442,-0.0212,-0.1641,-0.2043,6.7841,18.8904,-26.6159,-0.0000,-0.0000,-0.0000,0.0000,0.3230,0.8443,-0.0242,1.0000
-0.4922,5.8294,5.4378,0.0374,0.0767,-0.1766,9.4559,17.8802,-25.0717,-0.0000,-0.0000,-0.0000,0.0000,0.2788,0.8561,0.0494,1.0000
-0.3058,6.6814,6.5599,0.0704,-0.0235,0.1206,11.9431,15.6097,-26.8661,-0.0000,-0.0000,-0.0000,0.0000,0.2911,0.8230,0.0647,1.0000
1.0138,6.3246,7.2662,0.2792,-0.2781,-0.0956,8.5159,19.4107,-29.3274,-0.0000,-0.0000,-0.0000,0.0000,0.2430,0.8062,0.0460,1.0000
0.7544,6.5541,6.4207,0.0289,-0.1055,-0.0733,6.9748,18.0252,-29.3243,-0.0000,-0.0000,-0.0000,0.0000,0.1891,0.8115,0.0379,1.0000
0.2205,6.3011,6.4318,-0.2683,0.1299,0.0631,9.2209,18.7241,-30.2658,-0.0000,-0.0000,-0.0000,0.0000,0.2310,0.7935,0.0497,1.0000
-0.0967,5.7401,6.0368,-0.1405,-0.1630,-0.1319,7.2311,19.8807,-28.5065,-0.0000,-0.0000,-0.0000,0.0000,0.0589,0.8101,0.1158,1.0000
-0.9367,6.2221,6.5364,-0.2257,-0.0011,0.0152,-0.7111,23.3841,-31.8619,-0.0000,-0.0000,-0.0000,0.0000,-0.0864,0.8175,0.0962,1.0000
-0.2224,7.0756,4.9243,0.1301,-0.4112,-0.1510,-5.5176,24.7818,-36.9629,-0.0000,-0.0000,-0.0000,0.0000,-0.2080,0.8914,-0.0606,1.0000
-0.3980,6.0597,-4.6266,1.0899,-2.1838,1.3776,-13.2431,5.3970,11.2717,-0.0000,-0.0000,-0.0000,0.0000,0.5815,1.0042,-2.9007,1.0000
-4.7742,5.1180,-4.0739,-0.2672,-0.2397,-1.3516,-9.1080,13.1378,-5.5161,-0.0000,-0.0000,-0.0000,0.0000,1.0239,0.8811,2.6271,1.0000
-3.7746,8.5145,1.3509,0.3080,0.0586,0.3497,-51.4099,3.8849,15.0436,-0.0000,-0.0000,-0.0000,0.0000,2.1622,1.1757,1.8930,1.0000
-0.3892,7.8306,1.8122,-1.1376,3.6602,1.0730,-42.8131,14.8697,-27.2476,-0.0000,-0.0000,-0.0000,0.0000,0.3313,1.3863,-1.6541,1.0000
0.1319,5.9491,6.4362,0.0481,0.3504,0.3262,-10.8917,25.7111,-37.2116,-0.0000,-0.0000,-0.0000,0.0000,-0.0009,0.8634,-0.3230,1.0000
0.0569,6.6682,5.9306,0.2835,0.1512,0.1728,-2.0691,24.8947,-35.0845,-0.0000,-0.0000,-0.0000,0.0000,0.1674,0.8861,-0.1558,1.0000
0.4891,6.8506,5.2240,0.0790,0.0298,-0.0509,3.1601,20.1904,-33.9890,-0.0000,-0.0000,-0.0000,0.0000,0.2894,0.9098,-0.1099,1.0000
1.2177,6.6682,5.3856,-0.0414,-0.0448,-0.0413,6.2256,20.9595,-33.4183,-0.0000,-0.0000,-0.0000,0.0000,0.3038,0.9317,-0.0994,1.0000
0.2488,6.1127,6.9007,0.2973,-0.1012,-0.0892,7.8506,19.8746,-28.8193,-0.0000,-0.0000,-0.0000,0.0000,0.2569,0.8573,-0.0196,1.0000
-0.5480,5.4312,7.1293,0.2153,0.1246,-0.1425,11.2106,18.2693,-26.2421,-0.0000,-0.0000,-0.0000,0.0000,0.2249,0.7887,0.0922,1.0000