a02a5c6f-6e8f-4019-aba2-1b2cd4104a30,DS,1659769403376
Accelerometer x,Accelerometer y,Accelerometer z,Gyroscope x,Gyroscope y,Gyroscope z,Magnetometer x,Magnetometer y,Magnetometer z,GPS-Longitude,GPS-Latitude,GPS-Speed,Proximity_ON/OFF,Orientation yaw,Orientation pitch,Orientation roll,Screen
1.1558,6.8553,5.0903,0.6361,0.7289,-0.3453,-25.2960,32.9208,-19.7235,-0.0000,-0.0000,-0.0000,0.0000,-0.2278,0.9159,-0.0761,1.0000
1.7652,6.7520,6.1437,-0.1596,-0.3300,0.0755,-33.6060,26.9409,-12.6785,-0.0000,-0.0000,-0.0000,0.0000,-0.4280,0.8581,-0.1029,1.0000
-0.2783,6.8134,5.1597,-0.1554,0.0727,0.3280,-34.1675,27.8046,-11.9812,-0.0000,-0.0000,-0.0000,0.0000,-0.4470,0.8573,-0.1051,1.0000
1.6403,6.0505,5.5232,0.0183,0.0333,-0.0790,-33.1467,29.5029,-10.2264,-0.0000,-0.0000,-0.0000,0.0000,-0.3784,0.8259,-0.1977,1.0000
0.9088,6.6714,5.7874,0.0524,0.0876,0.1341,-31.5598,29.4861,-11.8210,-0.0000,-0.0000,-0.0000,0.0000,-0.3347,0.8383,-0.2137,1.0000
1.9655,6.1965,5.7176,-0.0542,0.0045,-0.1141,-29.4296,31.8726,-11.8057,-0.0000,-0.0000,-0.0000,0.0000,-0.1986,0.8530,-0.3465,1.0000
3.0716,6.1830,5.1789,-0.0158,0.0791,-0.1258,-29.8355,33.9203,-12.3123,-0.0000,-0.0000,-0.0000,0.0000,-0.0775,0.8627,-0.4608,1.0000
2.1558,6.5194,5.1952,-0.0361,-0.1286,-0.0214,-29.8187,32.4448,-13.7726,-0.0000,-0.0000,-0.0000,0.0000,-0.1353,0.8678,-0.3793,1.0000
2.1786,5.5613,5.5069,-0.0563,-0.5526,0.1746,-30.6015,32.5668,-12.6266,-0.0000,-0.0000,-0.0000,0.0000,-0.1143,0.8692,-0.4306,1.0000
2.6790,6.5142,5.0161,0.0076,0.2751,-0.1067,-28.4775,33.1360,-10.7712,-0.0000,-0.0000,-0.0000,0.0000,-0.1370,0.8030,-0.4232,1.0000
2.4751,6.2085,5.7136,0.0715,-0.1467,0.0020,-30.4047,32.9315,-11.0336,-0.0000,-0.0000,-0.0000,0.0000,-0.1814,0.8108,-0.3837,1.0000
3.2432,6.6123,5.3245,0.0620,-0.0359,0.1437,-30.1041,33.1390,-9.6481,-0.0000,-0.0000,-0.0000,0.0000,-0.1576,0.8167,-0.5238,1.0000
3.3629,5.9372,6.0005,0.2548,0.1920,-0.0694,-30.3085,33.0414,-9.3781,-0.0000,-0.0000,-0.0000,0.0000,-0.1282,0.8085,-0.5068,1.0000
2.7225,5.7393,5.2982,-0.0776,0.0844,-0.2526,-31.1081,32.7011,-9.9884,-0.0000,-0.0000,-0.0000,0.0000,-0.1580,0.8198,-0.4385,1.0000
1.2720,-1.2598,10.3539,-0.0371,-0.3726,-0.3890,26.5411,33.7616,2.9495,-0.0000,-0.0000,-0.0000,0.0000,0.7929,0.0535,0.0375,1.0000
4.1111,1.1947,7.8057,0.0918,0.0440,0.2545,15.7181,42.7094,-4.7394,-0.0000,-0.0000,-0.0000,0.0000,0.5549,0.1998,-0.3300,1.0000
3.5548,0.3435,8.4992,-0.0052,0.1473,-0.1088,14.9826,42.8101,-5.1193,-0.0000,-0.0000,-0.0000,0.0000,0.5776,0.1373,-0.4152,1.0000
5.0372,0.5837,7.6217,-0.0318,-0.0370,-0.0971,13.5010,42.2836,-4.2725,-0.0000,-0.0000,-0.0000,0.0000,0.4894,0.0894,-0.4431,1.0000
4.2124,0.9995,8.3663,-0.0414,-0.0498,-0.1503,10.4248,40.4068,-5.1636,-0.0000,-0.0000,-0.0000,0.0000,0.3960,0.1113,-0.4357,1.0000
2.5740,2.8139,8.1676,0.1312,0.4136,-0.3943,2.6489,44.5892,-7.5012,-0.0000,-0.0000,-0.0000,0.0000,0.2944,0.2855,-0.3663,1.0000
2.1383,3.1148,8.1397,-0.0659,0.2410,-0.2132,-0.4486,45.0851,-12.9868,-0.0000,-0.0000,-0.0000,0.0000,0.2041,0.3561,-0.3005,1.0000
0.8637,2.8710,7.5723,0.4657,-0.2927,-0.2292,-1.3184,43.1320,-14.1556,-0.0000,-0.0000,-0.0000,0.0000,0.1860,0.3822,-0.2482,1.0000
1.6055,4.4751,7.8556,0.0343,0.0535,0.1117,-4.7012,42.2226,-17.6895,-0.0000,-0.0000,-0.0000,0.0000,0.1025,0.4858,-0.2065,1.0000
2.0070,3.2852,8.5288,-0.2811,0.0557,-0.1493,-7.7713,42.3569,-13.1134,-0.0000,-0.0000,-0.0000,0.0000,0.0402,0.4085,-0.2168,1.0000
0.9599,2.2952,8.5547,0.3751,0.0248,0.0787,-10.5362,43.4464,-9.9258,-0.0000,-0.0000,-0.0000,0.0000,-0.0645,0.3039,-0.1027,1.0000
1.3506,2.5514,8.7143,-0.1980,0.0269,-0.0140,-10.2463,43.0283,-9.6390,-0.0000,-0.0000,-0.0000,0.0000,-0.1034,0.3535,-0.1918,1.0000
0.8721,3.6483,8.0766,0.2633,0.0759,0.0084,-15.2527,43.2663,-9.8831,-0.0000,-0.0000,-0.0000,0.0000,-0.1589,0.3927,-0.2104,1.0000
2.4056,3.8211,7.1680,0.1578,-0.1574,0.0819,-16.4963,43.1107,-10.6125,-0.0000,-0.0000,-0.0000,0.0000,-0.1481,0.4519,-0.2438,1.0000
2.0585,3.6878,7.8663,0.0438,0.2634,-0.0864,-17.5217,43.0420,-12.1750,-0.0000,-0.0000,-0.0000,0.0000,-0.1680,0.4513,-0.2115,1.0000
2.4782,3.0342,7.8899,0.1120,0.0727,-0.0598,-8.5281,46.7819,-5.5115,-0.0000,-0.0000,-0.0000,0.0000,0.0012,0.2639,-0.2285,1.0000
3.0245,3.2022,7.5703,-0.0595,0.1452,-0.0182,-11.4258,46.4417,-7.3288,-0.0000,-0.0000,-0.0000,0.0000,-0.0285,0.3476,-0.2671,1.0000
1.5569,1.7932,9.1345,0.3453,0.0408,-1.2785,-6.7001,43.6996,-3.0533,-0.0000,-0.0000,-0.0000,0.0000,0.0786,0.1850,-0.2448,1.0000
-0.2256,-8.6096,9.0639,0.4838,0.5340,-1.7472,28.2761,27.6245,17.7887,-0.0000,-0.0000,-0.0000,0.0000,0.9574,0.0311,0.2718,1.0000
1.5704,2.0374,8.1078,0.1930,0.0695,-0.1471,-9.7626,45.8786,2.3117,-0.0000,-0.0000,-0.0000,0.0000,0.0608,0.0861,-0.4036,1.0000
2.4252,0.4038,9.5543,0.0705,0.2378,-0.2601,-2.7924,45.1050,0.4303,-0.0000,-0.0000,-0.0000,0.0000,0.1265,0.0635,-0.3360,1.0000
-0.8050,-0.2718,7.6976,-0.6795,0.9473,-0.5136,8.9401,42.4896,7.2525,-0.0000,-0.0000,-0.0000,0.0000,0.3126,-0.0892,-0.1403,1.0000
2.6777,2.2281,6.8169,0.8247,1.1167,0.8372,-14.5432,44.1498,-0.5890,-0.0000,-0.0000,-0.0000,0.0000,-0.1155,0.1507,-0.3070,1.0000
1.4719,2.2964,8.0978,0.1813,-0.9840,-0.7426,-14.2853,40.9225,-8.3130,-0.0000,-0.0000,-0.0000,0.0000,-0.0203,0.2711,-0.1514,1.0000
1.7799,2.5490,8.8747,-0.0947,0.0589,0.1394,-14.8041,41.5207,-7.1594,-0.0000,-0.0000,-0.0000,0.0000,-0.0890,0.2907,-0.2185,1.0000
2.4615,2.4133,8.8069,0.3783,0.1366,-0.1344,-10.3302,43.3350,-7.1167,-0.0000,-0.0000,-0.0000,0.0000,0.0380,0.2755,-0.2319,1.0000
3.7336,2.2110,9.0770,-0.1756,-0.0935,0.2374,-7.7957,44.3634,-10.5774,-0.0000,-0.0000,-0.0000,0.0000,0.1430,0.2979,-0.2771,1.0000
3.3182,3.1272,8.1150,0.4838,0.2421,0.4015,-5.5130,43.5913,-12.7808,-0.0000,-0.0000,-0.0000,0.0000,0.1890,0.3206,-0.3074,1.0000
3.0261,3.2756,8.1980,-0.1234,0.2677,0.0627,-1.5869,41.7038,-14.2303,-0.0000,-0.0000,-0.0000,0.0000,0.3082,0.4287,-0.2413,1.0000
3.1386,2.9568,9.4449,-0.0851,-0.2980,-0.1908,-4.1214,43.1091,-13.9816,-0.0000,-0.0000,-0.0000,0.0000,0.2591,0.3712,-0.3106,1.0000
3.4846,3.4907,6.8704,-0.0467,0.1356,-0.0108,-6.1142,43.8049,-15.4984,-0.0000,-0.0000,-0.0000,0.0000,0.2917,0.4477,-0.4161,1.0000
2.6682,3.8502,7.0300,0.0396,-0.0370,-0.0704,-7.7927,41.1682,-14.5142,-0.0000,-0.0000,-0.0000,0.0000,0.2094,0.4513,-0.3077,1.0000
3.4515,4.1351,7.6684,-0.4430,0.1899,-0.0374,-0.4761,42.5385,-16.2216,-0.0000,-0.0000,-0.0000,0.0000,0.3078,0.4631,-0.3213,1.0000
1.7855,4.2489,8.1134,0.0225,-0.0540,0.0808,-6.8024,41.0278,-15.2130,-0.0000,-0.0000,-0.0000,0.0000,0.1541,0.4706,-0.2074,1.0000
0.8769,4.1974,8.0411,0.0886,0.2453,-0.2388,-1.1276,41.5695,-17.6315,-0.0000,-0.0000,-0.0000,0.0000,0.2421,0.5305,-0.1739,1.0000
1.5018,4.8614,6.7878,0.0726,0.1143,-0.1258,1.2711,41.4810,-18.0954,-0.0000,-0.0000,-0.0000,0.0000,0.3044,0.5207,-0.1577,1.0000
5.2056,4.3119,5.8468,0.0428,-0.2533,0.1511,-9.8785,37.1506,-15.9744,-0.0000,-0.0000,-0.0000,0.0000,0.3328,0.5532,-0.5763,1.0000
1.9559,3.6627,7.4765,0.4508,0.2538,0.1671,9.6527,39.4424,-14.6179,-0.0000,-0.0000,-0.0000,0.0000,0.5883,0.4589,-0.2529,1.0000
1.5285,4.7349,7.1892,0.0865,0.0226,0.0126,10.3012,38.6490,-16.7938,-0.0000,-0.0000,-0.0000,0.0000,0.6518,0.5111,-0.2162,1.0000
1.4388,3.4935,8.6784,-0.1532,-0.1584,0.3344,16.5573,36.9568,-14.9399,-0.0000,-0.0000,-0.0000,0.0000,0.7535,0.4924,-0.1336,1.0000
1.9352,3.9400,8.2738,0.2803,0.1313,-0.2654,18.0923,34.5657,-17.1783,-0.0000,-0.0000,-0.0000,0.0000,0.8825,0.5074,-0.2318,1.0000
3.0484,3.8901,7.1142,-0.5804,-0.2628,0.6742,19.9692,32.8232,-17.4377,-0.0000,-0.0000,-0.0000,0.0000,0.9645,0.5658,-0.2093,1.0000
3.6514,3.1818,7.9829,0.0279,-0.0136,0.3525,26.0834,27.4597,-15.6799,-0.0000,-0.0000,-0.0000,0.0000,1.1078,0.4941,-0.3065,1.0000
2.6151,3.9245,7.7925,0.0343,-0.1872,0.0212,27.9037,27.6505,-13.7222,-0.0000,-0.0000,-0.0000,0.0000,1.1439,0.5195,-0.1941,1.0000
1.4252,5.2293,5.9610,-0.2289,0.3135,0.8105,27.9099,28.8055,-15.3244,-0.0000,-0.0000,-0.0000,0.0000,1.1439,0.6236,-0.1933,1.0000
1.7843,3.6248,8.6197,-0.0329,0.0418,0.0798,30.6030,26.9547,-12.3734,-0.0000,-0.0000,-0.0000,0.0000,1.2169,0.4628,-0.2578,0.0000
1.7899,3.3183,8.7694,-0.2949,-0.1084,0.0670,30.3894,25.2731,-13.5574,-0.0000,-0.0000,-0.0000,0.0000,1.2177,0.4017,-0.2458,0.0000
1.9120,3.3371,8.4226,-0.1181,0.0141,0.1607,28.9795,25.7248,-12.5992,-0.0000,-0.0000,-0.0000,0.0000,1.1863,0.4123,-0.2115,0.0000
1.2157,4.2141,7.5128,0.0587,0.1835,0.1756,30.2414,26.2848,-12.9257,-0.0000,-0.0000,-0.0000,0.0000,1.1912,0.4522,-0.2178,0.0000
1.5118,3.7389,8.3081,-0.2640,-0.0690,0.0680,34.1309,24.1089,-11.5585,-0.0000,-0.0000,-0.0000,0.0000,1.2902,0.3984,-0.1991,0.0000
0.8115,3.0661,8.5363,0.1323,-0.0487,0.0414,36.5738,21.4722,-4.2160,-0.0000,-0.0000,-0.0000,0.0000,1.3806,0.3476,-0.0581,0.0000
-0.4435,3.5230,8.1864,0.3538,0.0844,-0.1056,37.5351,22.9660,-4.3304,-0.0000,-0.0000,-0.0000,0.0000,1.3905,0.4017,-0.0739,0.0000
1.0748,3.6938,7.5787,0.4295,-0.0093,-0.1248,36.9339,19.9265,-4.1885,-0.0000,-0.0000,-0.0000,0.0000,1.4178,0.3874,-0.0736,0.0000
1.4515,3.7600,7.2846,0.1312,-0.3704,0.0020,33.5556,21.2296,-8.7143,-0.0000,-0.0000,-0.0000,0.0000,1.3587,0.4513,-0.1744,0.0000
3.2699,2.9999,7.7510,-0.4398,-0.2011,-0.0076,29.6509,18.2007,-13.6993,-0.0000,-0.0000,-0.0000,0.0000,1.3357,0.3806,-0.2987,0.0000
1.1191,3.6088,9.0455,0.0374,-0.1297,0.0031,33.1528,22.6868,-7.1915,-0.0000,-0.0000,-0.0000,0.0000,1.4260,0.4377,-0.1900,0.0000
3.2975,4.9057,6.1701,0.3325,0.2421,0.2385,34.7977,17.9840,-8.1116,-0.0000,-0.0000,-0.0000,0.0000,1.5442,0.5258,-0.2549,0.0000
0.5533,3.5513,8.5375,0.2303,-0.0924,-0.0630,34.4788,13.1775,-2.6917,-0.0000,-0.0000,-0.0000,0.0000,1.5355,0.4032,-0.0953,0.0000
2.2149,2.1627,8.8460,0.1301,0.5723,0.3280,31.2790,17.3141,-3.9398,-0.0000,-0.0000,-0.0000,0.0000,1.4940,0.3624,-0.1888,0.0000
1.0513,2.5286,9.8823,0.6745,-1.4740,-0.1013,33.5342,18.0679,-4.0329,-0.0000,-0.0000,-0.0000,0.0000,1.4407,0.3367,-0.1110,0.0000
2.3765,0.6811,7.7506,-2.6076,1.2882,2.3094,32.3563,14.2731,-13.6887,-0.0000,-0.0000,-0.0000,0.0000,1.5318,0.1916,-0.4052,0.0000
3.6306,2.1735,12.1193,-0.3631,2.2224,-0.2185,26.1658,18.2480,-16.8213,-0.0000,-0.0000,-0.0000,0.0000,1.5406,0.2524,-0.5720,0.0000
7.7702,3.7273,-0.6251,0.4422,0.1633,0.1980,32.6309,-32.5546,-7.9178,-0.0000,-0.0000,-0.0000,1.0000,-2.6177,0.7800,-1.5802,0.0000
6.7754,4.6371,-2.0871,-0.0989,-0.0008,-0.1024,33.7509,-30.8868,-11.3632,-0.0000,-0.0000,-0.0000,1.0000,-2.5401,0.7287,-1.7738,0.0000
6.4885,5.3725,-2.6190,0.0833,-0.0338,-0.0438,33.7051,-31.1462,-16.0721,-0.0000,-0.0000,-0.0000,1.0000,-2.5788,0.7325,-1.7937,0.0000
6.7056,4.7058,-1.1885,0.0289,0.2027,0.1820,34.9609,-30.4413,-7.8064,-0.0000,-0.0000,-0.0000,1.0000,-2.4485,0.6828,-1.7243,0.0000
6.9710,4.7117,-1.2819,0.0939,0.0503,0.0350,33.3771,-29.5639,-7.2159,-0.0000,-0.0000,-0.0000,1.0000,-2.3700,0.6492,-1.7253,0.0000
6.7986,4.0952,-1.6662,-0.1170,-0.1766,-0.0449,30.9723,-32.4707,-3.7338,-0.0000,-0.0000,-0.0000,1.0000,-2.2391,0.6117,-1.7627,0.0000
6.3780,4.7744,-1.5257,0.0215,0.0748,0.0510,34.6130,-26.9516,-3.9749,-0.0000,-0.0000,-0.0000,1.0000,-2.1862,0.6651,-1.8070,0.0000
6.8249,4.5453,-0.0864,-0.2321,0.1079,0.2481,32.9880,-25.4639,-1.3916,-0.0000,-0.0000,-0.0000,1.0000,-2.2215,0.6403,-1.7137,0.0000
7.7183,4.3562,-1.7073,0.0779,-0.1414,0.0201,29.4952,-29.7195,-3.0457,-0.0000,-0.0000,-0.0000,1.0000,-2.1787,0.5656,-1.7499,0.0000
6.8660,4.5390,-1.7515,0.1046,0.0131,0.0201,28.6667,-27.3911,-2.2751,-0.0000,-0.0000,-0.0000,1.0000,-2.2013,0.5306,-1.7412,0.0000
7.4163,4.8801,-1.3741,0.1003,-0.2288,-0.2324,28.3844,-27.2385,-4.4800,-0.0000,-0.0000,-0.0000,1.0000,-2.2723,0.5261,-1.7109,0.0000
7.5081,4.1252,-0.9774,-0.2065,0.1771,0.0467,27.6291,-27.0370,0.6653,-0.0000,-0.0000,-0.0000,1.0000,-2.1141,0.4981,-1.7139,0.0000
6.8907,5.3430,-0.5221,0.0066,-0.2479,-0.1013,31.0501,-21.2524,-2.8091,-0.0000,-0.0000,-0.0000,1.0000,-2.2232,0.5933,-1.6184,0.0000
6.3628,5.1806,-1.7879,0.1919,0.1494,0.2608,28.8223,-22.8165,-3.2440,-0.0000,-0.0000,-0.0000,1.0000,-2.1272,0.6385,-1.8341,0.0000
7.7100,3.2229,-2.6749,0.0151,-0.0285,-0.2462,24.1547,-27.1255,-3.4454,-0.0000,-0.0000,-0.0000,1.0000,-2.0686,0.5085,-1.8218,0.0000
6.5588,6.1531,-0.9232,0.1376,-0.0189,0.0872,34.3414,-16.4520,1.8967,-0.0000,-0.0000,-0.0000,1.0000,-2.0759,0.7225,-1.7520,0.0000
7.7654,5.2891,-0.1478,-0.2022,0.1004,0.2214,31.7917,-19.4748,-0.8469,-0.0000,-0.0000,-0.0000,1.0000,-2.1359,0.6087,-1.7103,0.0000
6.5835,5.3709,-1.3876,0.0161,-0.0477,0.0947,32.6340,-21.6324,-2.0828,-0.0000,-0.0000,-0.0000,1.0000,-2.0297,0.6537,-1.7917,0.0000
6.9570,4.5853,-1.7017,0.0651,0.0961,-0.1333,29.4357,-22.0352,-2.9190,-0.0000,-0.0000,-0.0000,1.0000,-2.0809,0.5728,-1.7878,0.0000
6.5125,5.1451,-1.3912,0.0098,0.0280,0.1021,31.6757,-20.2408,-1.1124,-0.0000,-0.0000,-0.0000,1.0000,-2.0646,0.6371,-1.7855,0.0000
7.0460,4.7349,-1.7356,0.1898,-0.0370,0.1426,27.6962,-22.2061,-3.1815,-0.0000,-0.0000,-0.0000,1.0000,-2.0668,0.5781,-1.7846,0.0000
6.7738,4.4073,-1.4008,0.0470,0.0163,-0.0396,26.6373,-24.8383,0.3510,-0.0000,-0.0000,-0.0000,1.0000,-1.9958,0.5440,-1.7743,0.0000
6.9769,4.4975,-1.2476,-0.0243,0.1782,0.0031,28.3066,-22.0688,1.8616,-0.0000,-0.0000,-0.0000,1.0000,-1.9526,0.5562,-1.7806,0.0000
7.4422,4.5661,-1.8377,0.1205,-0.1339,-0.0555,29.2374,-24.6674,2.4979,-0.0000,-0.0000,-0.0000,1.0000,-1.9723,0.5329,-1.7627,0.0000
7.3369,4.2082,-2.3353,0.2857,-0.1521,0.1607,27.1866,-26.8478,-1.9791,-0.0000,-0.0000,-0.0000,1.0000,-2.0193,0.5527,-1.8305,0.0000
6.9079,5.2760,-1.3781,0.1035,-0.0370,-0.2260,32.2372,-19.6732,3.2684,-0.0000,-0.0000,-0.0000,1.0000,-2.0358,0.5880,-1.7825,0.0000
6.6346,4.7884,-1.5975,-0.1106,-0.0434,0.0084,32.0969,-21.1365,2.6855,-0.0000,-0.0000,-0.0000,1.0000,-1.9612,0.6075,-1.8025,0.0000
6.1825,5.4986,-1.3649,-0.2001,0.0780,-0.3133,33.1436,-18.3670,2.5864,-0.0000,-0.0000,-0.0000,1.0000,-2.0985,0.6274,-1.7599,0.0000
5.5496,5.8322,-1.1330,-0.0062,0.0226,-0.0885,35.2646,-14.4409,1.9333,-0.0000,-0.0000,-0.0000,1.0000,-2.1014,0.7503,-1.7568,0.0000
6.4175,4.0509,-2.3549,0.1131,-0.0381,0.1128,28.6011,-23.0576,-2.7252,-0.0000,-0.0000,-0.0000,1.0000,-2.0317,0.6553,-1.8643,0.0000
6.4778,4.4791,-2.6709,0.0513,0.0993,-0.0587,28.0304,-23.8754,-4.2908,-0.0000,-0.0000,-0.0000,1.0000,-2.0022,0.6137,-1.8743,0.0000
6.8792,4.8937,-1.9403,-0.1841,-0.0359,0.0254,28.3218,-21.7728,-1.0895,-0.0000,-0.0000,-0.0000,1.0000,-1.9176,0.6116,-1.8716,0.0000
7.0192,4.9839,-1.6626,0.0460,0.0450,-0.0236,28.0823,-22.0657,0.3525,-0.0000,-0.0000,-0.0000,1.0000,-1.9488,0.5721,-1.8235,0.0000
6.5149,4.7764,-1.1837,-0.0158,-0.0082,0.0968,26.7242,-23.3459,0.5554,-0.0000,-0.0000,-0.0000,1.0000,-1.9516,0.5884,-1.8079,0.0000
7.0771,5.3386,-1.0277,-0.3002,-0.0530,0.2300,27.5101,-22.2321,0.7919,-0.0000,-0.0000,-0.0000,1.0000,-1.9814,0.5513,-1.7971,0.0000
7.0556,4.2405,-1.8445,0.0705,-0.0093,-0.0694,26.9196,-23.4650,1.6708,-0.0000,-0.0000,-0.0000,1.0000,-1.9828,0.5121,-1.8093,0.0000
7.0109,5.8215,-0.9052,-0.1074,-0.0615,0.0297,31.3400,-22.0169,-0.1419,-0.0000,-0.0000,-0.0000,1.0000,-2.0670,0.5659,-1.7844,0.0000
6.9155,4.4408,-2.5261,0.0630,-0.0008,0.1351,29.4540,-25.9247,-1.0712,-0.0000,-0.0000,-0.0000,1.0000,-2.0212,0.5581,-1.8351,0.0000
6.9035,5.0876,-2.2328,0.0428,0.2293,-0.0140,30.0110,-24.7269,-1.0208,-0.0000,-0.0000,-0.0000,1.0000,-2.0030,0.5710,-1.8530,0.0000
6.6785,4.6938,-2.0301,-0.1000,0.0109,-0.1919,30.8029,-20.9488,-0.6943,-0.0000,-0.0000,-0.0000,1.0000,-1.9682,0.5974,-1.8750,0.0000
6.7395,4.3115,-1.1275,-0.2225,0.0695,0.1117,31.0669,-21.5057,0.8713,-0.0000,-0.0000,-0.0000,1.0000,-1.9392,0.6123,-1.8722,0.0000
6.3273,4.6419,-1.9966,0.0364,0.0791,-0.2718,29.9042,-20.5582,-0.4929,-0.0000,-0.0000,-0.0000,1.0000,-1.9367,0.6035,-1.8569,0.0000
7.0113,5.1311,-1.9834,-0.0680,0.0077,0.0925,30.9479,-19.8746,0.8301,-0.0000,-0.0000,-0.0000,1.0000,-1.9480,0.6212,-1.8390,0.0000
6.2248,5.6810,-1.1721,-0.0755,0.0653,-0.0651,33.6578,-18.6356,-0.6622,-0.0000,-0.0000,-0.0000,1.0000,-2.0411,0.6631,-1.8060,0.0000
6.4243,4.9288,-1.6925,-0.0009,-0.0051,-0.0055,31.4850,-22.3755,-0.6088,-0.0000,-0.0000,-0.0000,1.0000,-2.0086,0.6271,-1.8266,0.0000
5.7312,5.5617,-1.7308,0.2036,0.0322,0.1586,33.2443,-20.1385,1.1047,-0.0000,-0.0000,-0.0000,1.0000,-1.9545,0.6669,-1.8408,0.0000
5.3421,5.5653,-1.3677,0.1142,0.0376,0.0989,30.9570,-20.8649,0.0397,-0.0000,-0.0000,-0.0000,1.0000,-1.9342,0.6542,-1.8395,0.0000
6.5835,4.8027,-1.9634,0.0130,0.0770,-0.0630,28.2928,-20.3323,0.0809,-0.0000,-0.0000,-0.0000,1.0000,-1.8755,0.6019,-1.8651,0.0000
6.5739,4.6854,-1.8545,-0.0638,0.0237,0.0787,28.8834,-20.8374,0.6348,-0.0000,-0.0000,-0.0000,1.0000,-1.8771,0.5950,-1.8758,0.0000
6.6206,4.9472,-1.7396,-0.0350,-0.0125,0.0414,27.1545,-19.4611,-0.6287,-0.0000,-0.0000,-0.0000,1.0000,-1.8768,0.6200,-1.8739,0.0000
7.1370,4.4364,-1.0736,-0.0201,-0.0977,0.0084,30.6366,-25.0412,0.4837,-0.0000,-0.0000,-0.0000,1.0000,-2.0214,0.5904,-1.7986,0.0000
6.9330,4.2549,-1.5189,0.0183,0.1207,0.0691,29.3945,-22.8195,-2.5711,-0.0000,-0.0000,-0.0000,1.0000,-2.0525,0.5840,-1.8307,0.0000
6.8588,4.7632,-1.4044,-0.0510,-0.0434,-0.0001,27.5284,-22.4243,-0.4898,-0.0000,-0.0000,-0.0000,1.0000,-2.0678,0.5420,-1.7800,0.0000
7.4877,4.6754,-1.1378,0.0225,0.0493,-0.1109,27.2110,-22.8302,-2.6581,-0.0000,-0.0000,-0.0000,1.0000,-2.1410,0.5276,-1.7602,0.0000
6.9151,4.9089,-1.9515,0.0353,-0.0381,-0.1248,28.0807,-20.8176,-0.1434,-0.0000,-0.0000,-0.0000,1.0000,-2.0403,0.5545,-1.7672,0.0000
7.9506,3.9041,-2.4854,-0.1724,-0.1925,0.0957,28.1631,-20.8862,0.3967,-0.0000,-0.0000,-0.0000,1.0000,-1.9451,0.5907,-1.8427,0.0000
6.4893,5.3538,-1.0381,-0.0819,0.0408,-0.0566,32.3380,-16.9815,-1.6220,-0.0000,-0.0000,-0.0000,1.0000,-1.9775,0.6654,-1.8586,0.0000
6.0416,5.7305,-0.1790,0.0034,-0.4120,0.0734,36.5723,-16.1911,-0.5234,-0.0000,-0.0000,-0.0000,1.0000,-2.2073,0.7517,-1.7044,0.0000
6.5464,5.9511,-0.3338,-0.2630,-0.1393,0.1362,39.0060,-21.1823,-9.8404,-0.0000,-0.0000,-0.0000,1.0000,-2.3891,0.7484,-1.7666,0.0000
7.1657,4.4025,-3.5360,0.3474,-0.2362,0.1245,37.4619,-29.1260,-16.2491,-0.0000,-0.0000,-0.0000,1.0000,-2.6719,0.6648,-1.7169,0.0000
6.5001,5.4196,-1.4028,0.0428,0.0461,0.0776,39.2532,-30.1544,-13.1836,-0.0000,-0.0000,-0.0000,1.0000,-2.5531,0.6598,-1.7575,0.0000
2.6279,0.9173,11.2406,0.2675,1.8155,1.1503,43.1519,-2.3132,0.4028,-0.0000,-0.0000,-0.0000,0.0000,2.5540,0.8050,-0.8788,0.0000
2.1949,5.6068,5.8780,0.4572,0.2687,-0.4507,41.8930,12.8937,4.7012,-0.0000,-0.0000,-0.0000,0.0000,2.1486,0.6125,-0.4343,0.0000
3.3757,7.3282,4.0309,0.3176,0.4978,0.1597,43.9774,10.1654,-2.1347,-0.0000,-0.0000,-0.0000,0.0000,2.1981,0.7778,-0.4680,0.0000
0.7528,6.1922,1.2141,-0.5357,-0.6698,-0.1163,39.6683,13.2660,-6.1096,-0.0000,-0.0000,-0.0000,0.0000,2.4243,0.8251,-0.6637,0.0000
3.5353,7.4387,1.9359,0.6148,0.6022,0.1575,36.0016,7.4829,-5.8853,-0.0000,-0.0000,-0.0000,0.0000,2.6202,0.8786,-0.8299,0.0000
0.2939,6.3063,5.7990,-1.6542,-0.1979,-0.7831,28.9398,9.1583,7.2403,-0.0000,-0.0000,-0.0000,0.0000,2.1212,0.7524,-0.2563,0.0000
1.9180,2.0789,6.4550,2.0987,-0.2074,0.4366,27.9831,-4.5013,12.4191,-0.0000,-0.0000,-0.0000,0.0000,2.3206,0.3912,-0.1223,0.0000
2.9531,1.5494,9.5367,0.2963,-0.3736,-0.0758,28.9688,1.2115,1.4633,-0.0000,-0.0000,-0.0000,0.0000,1.9936,0.3014,-0.2989,0.0000
1.7273,4.8725,5.2818,0.9238,-0.1840,-0.0747,23.6923,3.4561,7.1304,-0.0000,-0.0000,-0.0000,0.0000,2.0888,0.6036,-0.3208,0.0000
1.6443,5.1012,7.4809,-0.2534,-0.7092,-0.3101,23.4070,3.6331,5.0201,-0.0000,-0.0000,-0.0000,0.0000,1.9543,0.5860,-0.3147,0.0000
0.9747,5.7041,7.4729,-0.3045,0.7683,-0.0470,24.3347,5.9784,5.0995,-0.0000,-0.0000,-0.0000,0.0000,1.8619,0.6379,-0.2686,1.0000
-0.2759,6.3290,5.7714,-0.2065,0.1995,-0.2633,25.1160,8.4732,8.4091,-0.0000,-0.0000,-0.0000,0.0000,1.9253,0.7380,-0.1345,1.0000
1.8825,5.6415,5.9606,0.1024,-0.1787,-0.1120,28.6621,10.1959,8.8684,-0.0000,-0.0000,-0.0000,0.0000,2.1014,0.6698,-0.2005,1.0000
1.6854,5.3582,6.7315,-0.3194,0.0642,-0.2324,27.7008,6.8115,9.3903,-0.0000,-0.0000,-0.0000,0.0000,2.0661,0.6444,-0.1750,1.0000
0.9563,5.1419,7.1736,-0.0052,-0.1158,-0.0396,27.5284,5.6198,9.2331,-0.0000,-0.0000,-0.0000,0.0000,2.0602,0.6244,-0.1528,1.0000
1.4116,5.1475,7.2275,-0.1223,-0.0114,0.0798,27.7924,6.0425,7.8369,-0.0000,-0.0000,-0.0000,0.0000,2.0515,0.6249,-0.1819,1.0000
1.8809,5.6658,6.3915,-0.0190,0.0930,0.1149,26.7563,8.1329,8.1284,-0.0000,-0.0000,-0.0000,0.0000,2.0546,0.6356,-0.2041,1.0000
1.5389,5.1351,6.9031,-0.1575,0.1324,0.0840,27.8427,7.2235,9.1278,-0.0000,-0.0000,-0.0000,0.0000,2.0607,0.6186,-0.1943,1.0000
1.0445,4.8111,7.3815,-0.0275,0.1729,0.0553,27.0325,6.7566,8.5190,-0.0000,-0.0000,-0.0000,0.0000,2.0681,0.5692,-0.1580,1.0000
0.6004,5.4049,7.8013,-0.1831,0.2048,0.0542,27.6535,4.7928,9.1675,-0.0000,-0.0000,-0.0000,0.0000,2.0399,0.6065,-0.1484,1.0000
1.2408,5.1343,7.5735,-0.0701,-0.0232,0.1277,27.0447,4.2068,8.5938,-0.0000,-0.0000,-0.0000,0.0000,2.0697,0.6019,-0.1395,1.0000
0.1638,4.8690,8.1584,-0.2864,0.1143,-0.1407,25.2655,3.5355,10.0113,-0.0000,-0.0000,-0.0000,0.0000,2.0810,0.5938,-0.1590,1.0000
0.9232,4.6974,7.3955,0.0438,-0.0093,0.1320,26.7059,2.9648,11.0825,-0.0000,-0.0000,-0.0000,0.0000,2.1056,0.5833,-0.1453,1.0000
1.3889,4.3586,7.4522,0.0172,0.0184,-0.0587,25.4364,3.4607,11.3525,-0.0000,-0.0000,-0.0000,0.0000,2.1436,0.5619,-0.1366,1.0000
1.2093,4.6351,7.3121,-0.1223,0.0429,-0.0790,25.5249,3.8055,11.4746,-0.0000,-0.0000,-0.0000,0.0000,2.1343,0.5439,-0.1340,1.0000
0.8530,4.8243,7.6916,-0.0616,-0.0754,-0.0481,24.2386,1.2955,9.4055,-0.0000,-0.0000,-0.0000,0.0000,2.1032,0.5303,-0.1482,1.0000
1.3965,4.4923,8.3915,-0.0638,0.1185,-0.0161,27.6337,4.0756,8.1207,-0.0000,-0.0000,-0.0000,0.0000,2.0656,0.5257,-0.1943,1.0000
1.3059,4.4364,7.5946,0.0300,-0.0817,0.0467,26.3992,2.4536,11.1084,-0.0000,-0.0000,-0.0000,0.0000,2.1062,0.5387,-0.1638,1.0000
1.5728,4.8482,7.8284,-0.0819,0.0024,-0.2068,25.3555,4.7302,7.6523,-0.0000,-0.0000,-0.0000,0.0000,2.0266,0.5253,-0.1810,1.0000
1.3725,4.4021,6.8720,0.0364,0.1089,0.2246,27.2583,6.1966,6.8481,-0.0000,-0.0000,-0.0000,0.0000,2.0045,0.5502,-0.1843,1.0000
1.5708,4.7580,7.7718,-0.1703,0.0567,-0.0449,25.4318,4.8157,6.3782,-0.0000,-0.0000,-0.0000,0.0000,1.9778,0.5267,-0.1645,1.0000
1.3589,2.6803,9.7390,-0.0755,0.2005,0.1692,27.7679,1.9608,6.2912,-0.0000,-0.0000,-0.0000,0.0000,2.0251,0.3813,-0.1516,1.0000
2.3058,4.1603,8.0004,-0.1586,0.0748,-0.1269,27.9190,3.9078,5.5634,-0.0000,-0.0000,-0.0000,0.0000,1.9993,0.4589,-0.2189,1.0000
1.3410,4.0438,8.0220,-0.0499,0.0312,0.1969,28.2120,3.2089,5.7053,-0.0000,-0.0000,-0.0000,0.0000,1.9803,0.4628,-0.2008,1.0000
1.4679,4.2038,7.1222,0.1152,-0.1627,-0.0428,27.6077,4.2725,6.8832,-0.0000,-0.0000,-0.0000,0.0000,1.9765,0.5083,-0.1711,1.0000
1.5944,4.0326,7.6493,0.1152,-0.0274,0.1234,28.2120,4.3884,4.8523,-0.0000,-0.0000,-0.0000,0.0000,1.9142,0.4961,-0.1930,1.0000
1.5118,4.1272,8.4378,-0.2267,0.0077,-0.0949,27.9800,4.3137,5.0064,-0.0000,-0.0000,-0.0000,0.0000,1.9633,0.4736,-0.2122,1.0000
1.7069,4.4998,7.4418,0.1067,-0.0839,-0.1908,28.8040,4.7836,5.2673,-0.0000,-0.0000,-0.0000,0.0000,1.9441,0.4942,-0.1653,1.0000
0.4811,4.0900,8.0204,-0.1245,-0.0573,-0.0289,27.5589,4.1290,5.3558,-0.0000,-0.0000,-0.0000,0.0000,1.9774,0.5119,-0.1965,1.0000
1.6031,3.9819,8.2746,0.1536,-0.1957,-0.0832,29.6310,7.6340,5.5176,-0.0000,-0.0000,-0.0000,0.0000,2.0260,0.5372,-0.2287,1.0000
2.2256,4.5162,7.0044,0.0577,-0.1169,-0.0758,29.0115,9.2117,5.6229,-0.0000,-0.0000,-0.0000,0.0000,1.9566,0.5457,-0.2495,1.0000
1.4172,4.8737,7.1114,0.0694,0.0493,0.0893,27.4277,9.4833,2.4078,-0.0000,-0.0000,-0.0000,0.0000,1.8123,0.5398,-0.2082,1.0000
1.5984,5.0410,6.8732,0.1333,0.0003,0.1053,28.3234,9.5840,2.4567,-0.0000,-0.0000,-0.0000,0.0000,1.8669,0.5509,-0.2286,1.0000
1.3390,4.5557,7.9306,0.2729,-0.0860,-0.0055,30.5283,9.0561,6.1646,-0.0000,-0.0000,-0.0000,0.0000,1.9253,0.5515,-0.2331,1.0000
1.1279,4.8526,7.8344,0.2175,-0.0626,-0.0065,32.2525,10.2249,6.2302,-0.0000,-0.0000,-0.0000,0.0000,2.0305,0.5862,-0.2527,1.0000
2.4204,5.6156,6.6784,-0.2054,0.2410,0.4260,36.5540,2.2049,8.1818,-0.0000,-0.0000,-0.0000,0.0000,2.2760,0.6393,-0.3159,1.0000
2.9012,5.1032,7.3915,-0.0211,0.2038,0.2864,34.0302,-3.0991,16.2277,-0.0000,-0.0000,-0.0000,0.0000,2.5217,0.6333,-0.3323,1.0000
1.7652,6.8705,5.6070,0.1035,0.4551,0.2427,29.7974,-0.9949,11.0443,-0.0000,-0.0000,-0.0000,0.0000,2.5868,0.6218,-0.4378,1.0000
5.7371,5.5409,5.4542,-0.1170,-0.6644,0.2023,18.2434,-14.6912,17.6010,-0.0000,-0.0000,-0.0000,0.0000,3.0245,0.5382,-0.5823,1.0000
2.6722,5.9292,5.9394,0.1589,1.0623,0.3461,1.8875,-5.4977,36.5021,-0.0000,-0.0000,-0.0000,0.0000,-2.6826,0.7460,-0.6447,1.0000
2.3358,3.2561,9.0411,0.8353,0.4541,0.0212,-25.6363,5.2826,37.1918,-0.0000,-0.0000,-0.0000,0.0000,-2.1756,0.8548,-0.4514,1.0000
2.2149,5.3422,6.5488,-0.3812,-1.0021,-0.6606,-20.5612,10.9268,36.0245,-0.0000,-0.0000,-0.0000,0.0000,-1.8573,0.7550,-0.4495,1.0000
3.2144,3.8303,8.1792,0.0620,-0.5888,-0.6979,-16.9235,-2.9099,38.5849,-0.0000,-0.0000,-0.0000,0.0000,-2.2399,0.6740,-0.3866,1.0000
3.1067,5.3402,7.0292,0.3709,0.5617,0.0126,-8.5175,1.4664,39.8712,-0.0000,-0.0000,-0.0000,0.0000,-2.5250,0.7917,-0.4066,1.0000
4.0484,6.3023,4.6234,0.0492,-0.0743,-0.2185,-2.3392,-0.9079,38.3560,-0.0000,-0.0000,-0.0000,0.0000,-2.4874,0.7684,-0.5801,1.0000
2.9810,6.1131,4.7327,0.2558,0.2517,0.3152,-2.7649,-1.4481,36.1191,-0.0000,-0.0000,-0.0000,0.0000,-2.5218,0.8045,-0.5131,1.0000
2.1367,5.0182,6.9542,0.2324,-0.1446,0.0158,-5.8701,-4.4220,36.1740,-0.0000,-0.0000,-0.0000,0.0000,-2.5072,0.7266,-0.4867,1.0000
-3.6661,6.8562,-0.9024,1.0388,0.0663,-0.5807,0.6348,16.8579,53.1815,-0.0000,-0.0000,-0.0000,0.0000,-3.0325,1.1902,-0.5929,1.0000
3.3050,7.4463,4.1641,-0.1042,-0.1830,0.1085,16.2308,6.5918,28.8925,-0.0000,-0.0000,-0.0000,0.0000,-3.0757,0.9276,-0.6849,1.0000
2.4423,7.0660,4.0512,-0.2534,-0.1680,-0.1024,24.4614,3.9764,17.9474,-0.0000,-0.0000,-0.0000,0.0000,2.9173,0.8419,-0.6435,1.0000
2.1123,7.0904,4.0672,-0.1085,0.0418,-0.1024,27.6962,5.9509,8.3145,-0.0000,-0.0000,-0.0000,0.0000,2.6909,0.8936,-0.7444,1.0000
3.8557,7.3853,2.6131,0.2761,-0.0732,0.0734,31.7856,3.7201,-1.0635,-0.0000,-0.0000,-0.0000,0.0000,2.7636,0.7957,-0.9771,1.0000
2.0357,7.3214,3.8285,-0.3940,0.3167,-0.2803,28.8666,5.3467,4.0421,-0.0000,-0.0000,-0.0000,0.0000,2.4540,0.8476,-0.6311,1.0000
2.8046,6.4036,5.1557,0.0364,0.1494,0.0542,25.9567,3.4546,7.7744,-0.0000,-0.0000,-0.0000,0.0000,2.4497,0.8344,-0.4978,1.0000
2.0668,5.8973,6.0037,-0.2118,-0.0327,0.0169,26.5137,2.9633,9.5825,-0.0000,-0.0000,-0.0000,0.0000,2.4285,0.7598,-0.3922,1.0000
3.4148,6.0345,5.3592,0.0534,0.0141,-0.1450,27.3285,1.4664,10.3012,-0.0000,-0.0000,-0.0000,0.0000,2.4721,0.7249,-0.4283,1.0000
3.3793,5.7061,5.9534,-0.1479,0.0663,0.0361,28.4851,0.2274,10.5194,-0.0000,-0.0000,-0.0000,0.0000,2.4428,0.7112,-0.3890,1.0000
3.0409,5.7424,5.5631,-0.1010,0.0546,-0.0332,26.8112,1.1749,10.8521,-0.0000,-0.0000,-0.0000,0.0000,2.4351,0.6826,-0.3525,1.0000
2.1853,5.4575,5.8604,-0.1713,0.0908,-0.0779,27.9373,1.1749,9.8541,-0.0000,-0.0000,-0.0000,0.0000,2.4664,0.6467,-0.4124,1.0000
2.0317,5.1666,6.8728,0.0108,-0.1499,-0.0800,29.0527,1.7044,8.4839,-0.0000,-0.0000,-0.0000,0.0000,2.4159,0.6946,-0.3917,0.0000
1.9958,5.6459,6.4917,-0.1138,-0.0221,0.0425,29.8462,2.3026,9.4284,-0.0000,-0.0000,-0.0000,0.0000,2.3706,0.7299,-0.3786,0.0000
3.3613,5.7899,4.6043,0.1610,-0.0945,0.1426,28.2364,2.4826,10.1242,-0.0000,-0.0000,-0.0000,0.0000,2.4645,0.7149,-0.3897,0.0000
1.8147,5.8298,6.6709,0.0225,0.0866,-0.1759,30.8395,6.0654,10.5270,-0.0000,-0.0000,-0.0000,0.0000,2.4538,0.7281,-0.4055,0.0000
-0.0345,6.1399,7.3444,0.4114,0.0717,0.1075,30.4459,3.9780,9.4803,-0.0000,-0.0000,-0.0000,0.0000,2.3113,0.7255,-0.3319,0.0000
1.4962,4.3825,7.6924,0.3315,-0.3087,-0.4987,29.7501,0.4639,10.1257,-0.0000,-0.0000,-0.0000,0.0000,2.4404,0.6358,-0.3239,0.0000
1.1530,5.9831,6.4366,-0.1809,0.0961,-0.2217,27.1362,1.8616,12.0041,-0.0000,-0.0000,-0.0000,0.0000,2.3899,0.6849,-0.3021,0.0000
3.0269,4.9783,5.9861,-0.0286,-0.0551,0.3163,27.1439,3.0548,11.5082,-0.0000,-0.0000,-0.0000,0.0000,2.3816,0.6671,-0.2823,0.0000
1.9395,3.5709,7.6764,0.2718,-0.1893,0.1927,28.5645,-3.2547,10.7269,-0.0000,-0.0000,-0.0000,0.0000,2.3264,0.4715,-0.2469,0.0000
2.2903,4.7548,6.6242,-0.1149,-0.2064,0.0031,29.6021,0.7675,10.9421,-0.0000,-0.0000,-0.0000,0.0000,2.3715,0.5652,-0.2990,0.0000
2.4683,4.7309,7.0799,-0.0925,0.0312,-0.0459,28.8528,2.6016,9.3475,-0.0000,-0.0000,-0.0000,0.0000,2.3658,0.5662,-0.3155,0.0000
2.4814,4.5090,8.3221,0.4625,-0.2000,-0.2334,30.4825,1.0468,11.2152,-0.0000,-0.0000,-0.0000,0.0000,2.4099,0.5629,-0.2640,0.0000
2.3996,6.0026,6.1701,0.0034,0.1185,-0.0161,28.8925,3.2745,10.7468,-0.0000,-0.0000,-0.0000,0.0000,2.3685,0.6656,-0.3397,0.0000
1.9060,4.9057,6.8081,-0.0733,-0.0519,-0.1088,30.9647,4.4785,11.2061,-0.0000,-0.0000,-0.0000,0.0000,2.3292,0.6453,-0.3069,0.0000
1.8625,5.8861,6.0484,-0.2459,0.1665,0.0446,27.1683,5.7693,10.1532,-0.0000,-0.0000,-0.0000,0.0000,2.2713,0.6592,-0.3097,0.0000
1.3873,4.9532,6.5903,0.4646,-0.1925,0.0116,26.4389,6.8405,8.3725,-0.0000,-0.0000,-0.0000,0.0000,2.2153,0.6792,-0.2683,0.0000
1.8713,5.8191,7.0188,-0.1266,0.0269,0.0670,27.5696,5.1010,7.7026,-0.0000,-0.0000,-0.0000,0.0000,2.1785,0.7172,-0.2961,0.0000
1.8621,5.8103,5.9127,0.0715,-0.0423,-0.0108,29.5181,5.5511,6.7535,-0.0000,-0.0000,-0.0000,0.0000,2.1581,0.6845,-0.2646,0.0000
2.0840,5.9563,6.6521,-0.0861,0.2261,-0.0470,27.3102,4.3701,7.2144,-0.0000,-0.0000,-0.0000,0.0000,2.1805,0.6936,-0.3070,0.0000
1.6371,5.9432,5.8093,-0.0488,0.0493,0.0233,27.3453,5.7343,4.7241,-0.0000,-0.0000,-0.0000,0.0000,2.1672,0.7306,-0.2707,0.0000
2.2336,5.6152,6.3764,-0.1436,0.1281,-0.0278,27.9282,4.8355,6.2729,-0.0000,-0.0000,-0.0000,0.0000,2.2932,0.7267,-0.3357,0.0000
1.9547,5.1894,6.4139,0.0012,-0.1275,0.1107,30.4947,4.6921,9.6909,-0.0000,-0.0000,-0.0000,0.0000,2.3684,0.7418,-0.3200,0.0000
1.8546,5.1942,6.5898,0.0151,-0.3193,-0.1461,30.1682,6.2653,8.0627,-0.0000,-0.0000,-0.0000,0.0000,2.3318,0.7195,-0.3440,0.0000
2.3334,5.5294,5.5611,0.0034,-0.0136,0.0276,32.7042,6.9489,4.3640,-0.0000,-0.0000,-0.0000,0.0000,2.2524,0.7474,-0.4107,0.0000
2.3569,5.0409,6.2998,0.0641,-0.1712,-0.0119,32.4753,6.2531,0.2960,-0.0000,-0.0000,-0.0000,0.0000,2.1342,0.6984,-0.3843,0.0000
2.8170,5.2050,5.7934,-0.0435,-0.1499,-0.0928,33.1238,10.4950,-0.8850,-0.0000,-0.0000,-0.0000,0.0000,2.0488,0.6964,-0.4648,0.0000
2.8421,5.7265,5.5252,-0.0510,-0.0817,-0.0736,35.4614,15.1855,-10.6003,-0.0000,-0.0000,-0.0000,0.0000,1.9197,0.7191,-0.5296,0.0000
2.0876,6.6614,5.0416,-0.1138,-0.0626,-0.1099,34.1705,20.0684,-14.9109,-0.0000,-0.0000,-0.0000,0.0000,1.8282,0.7256,-0.5808,0.0000
2.7556,6.6538,5.0300,-0.0052,0.1984,-0.0129,32.8613,22.2519,-14.6408,-0.0000,-0.0000,-0.0000,0.0000,1.8127,0.7347,-0.6237,0.0000
3.5405,6.1590,4.8684,-0.1532,0.1249,-0.0491,36.6867,22.5433,-15.3442,-0.0000,-0.0000,-0.0000,0.0000,1.8677,0.7324,-0.5598,0.0000
2.9423,5.7357,5.5137,-0.0435,-0.0221,-0.0140,36.5524,19.2551,-13.7421,-0.0000,-0.0000,-0.0000,0.0000,1.8590,0.7010,-0.5073,0.0000
3.3322,5.9483,4.9774,0.1983,0.2165,0.1927,34.9991,14.1388,-12.7777,-0.0000,-0.0000,-0.0000,0.0000,1.9222,0.7135,-0.5225,0.0000
3.8437,6.0513,5.1701,-0.0350,0.0376,0.1650,37.5885,11.5768,-10.8994,-0.0000,-0.0000,-0.0000,0.0000,2.0334,0.6975,-0.5283,0.0000
3.0932,6.5465,4.7786,0.0833,0.2613,0.2289,38.6703,7.2845,-6.5063,-0.0000,-0.0000,-0.0000,0.0000,2.3103,0.7343,-0.5874,0.0000
2.2113,6.3135,5.0803,0.0577,0.2240,1.0438,38.4827,1.1581,3.1906,-0.0000,-0.0000,-0.0000,0.0000,2.6851,0.7496,-0.5961,0.0000
2.2847,5.4156,6.6736,0.0044,0.1686,-0.1940,32.5272,-0.8774,9.2300,-0.0000,-0.0000,-0.0000,0.0000,2.6313,0.7176,-0.4519,0.0000
3.2364,4.4963,7.3077,0.1152,-0.1595,-0.2217,31.7642,-1.5167,9.7305,-0.0000,-0.0000,-0.0000,0.0000,2.5710,0.6962,-0.3879,0.0000
1.4248,5.8989,6.7239,0.1184,-0.3523,-0.2579,31.6574,5.7297,2.7618,-0.0000,-0.0000,-0.0000,0.0000,2.1934,0.7252,-0.3936,0.0000
2.5600,6.6012,6.4538,-0.4164,-0.1244,-0.0310,29.4327,13.5681,-5.4962,-0.0000,-0.0000,-0.0000,0.0000,2.1381,0.8055,-0.4914,0.0000
2.0433,7.5995,4.2858,0.2068,0.1239,-0.0385,29.1168,13.1058,-6.4102,-0.0000,-0.0000,-0.0000,0.0000,2.2033,0.8317,-0.5996,0.0000
2.6666,6.3881,4.9821,0.2004,0.0535,0.0531,31.7001,11.3876,-1.7715,-0.0000,-0.0000,-0.0000,0.0000,2.2211,0.8258,-0.5185,0.0000
2.4395,6.2293,4.7778,0.0225,0.2506,-0.2217,29.5258,11.1328,2.9343,-0.0000,-0.0000,-0.0000,0.0000,2.2657,0.8186,-0.3854,0.0000
0.4204,5.1311,7.4993,-0.8787,0.0834,-0.8641,28.2562,7.2250,6.9092,-0.0000,-0.0000,-0.0000,0.0000,2.0563,0.6121,-0.1600,0.0000
-0.4092,5.1251,5.7626,-0.0062,0.0088,-0.0076,27.4963,14.0320,8.5037,-0.0000,-0.0000,-0.0000,0.0000,1.9181,0.7230,-0.0014,0.0000
0.2313,5.4152,7.4861,-0.0254,0.0301,0.0094,28.6575,11.3129,7.0450,-0.0000,-0.0000,-0.0000,0.0000,1.9435,0.6729,-0.0542,0.0000
0.9519,5.4723,6.0460,-0.1000,0.0077,0.2300,31.1813,13.1653,6.7871,-0.0000,-0.0000,-0.0000,0.0000,2.0030,0.7200,-0.1232,0.0000
1.2955,5.3406,7.6732,-0.0243,0.0408,0.1820,29.1809,11.9904,8.9523,-0.0000,-0.0000,-0.0000,0.0000,1.9763,0.6718,-0.0960,0.0000
-0.0903,5.6471,6.9693,-0.0531,0.0312,-0.0885,32.4768,10.6155,8.7646,-0.0000,-0.0000,-0.0000,0.0000,2.0065,0.6640,-0.0961,0.0000
0.8131,4.5641,7.2279,-0.1873,0.0727,0.1021,28.9093,8.8211,9.0149,-0.0000,-0.0000,-0.0000,0.0000,1.9283,0.6380,-0.0518,0.0000
0.4240,5.2947,6.9091,-0.0435,0.0365,0.0968,30.3207,10.1288,6.4407,-0.0000,-0.0000,-0.0000,0.0000,1.9373,0.6389,-0.0687,0.0000
0.3809,5.2377,7.4526,-0.1873,-0.0509,0.0031,31.3232,11.7264,4.2267,-0.0000,-0.0000,-0.0000,0.0000,1.8960,0.6191,-0.0689,0.0000
0.7089,5.5094,6.9015,-0.0403,0.0269,0.0073,29.0955,12.2177,5.9814,-0.0000,-0.0000,-0.0000,0.0000,1.9198,0.6407,-0.0572,0.0000
0.1790,5.7105,6.8389,0.2974,-0.0061,0.0734,29.8782,12.6007,5.9921,-0.0000,-0.0000,-0.0000,0.0000,1.9303,0.6505,-0.0634,0.0000
-0.2196,5.0956,7.0607,0.0332,-0.1031,-0.0278,29.0771,17.2745,12.9150,-0.0000,-0.0000,-0.0000,0.0000,1.9383,0.6742,-0.0493,0.0000
1.2173,5.8023,7.1365,-0.1799,0.4541,0.1075,31.4972,12.6419,5.5603,-0.0000,-0.0000,-0.0000,0.0000,2.0062,0.7293,-0.1451,0.0000
1.0800,5.2724,7.0878,-0.4792,0.0514,-0.2345,28.6453,9.4666,6.9443,-0.0000,-0.0000,-0.0000,0.0000,2.0087,0.6935,-0.0983,0.0000
0.8135,5.8901,5.7734,0.1589,-0.0935,0.0968,31.3705,11.5082,3.4393,-0.0000,-0.0000,-0.0000,0.0000,1.9873,0.7100,-0.1040,0.0000
1.5449,5.4643,6.4849,-0.4473,-0.1318,0.1597,31.0944,11.5799,5.1773,-0.0000,-0.0000,-0.0000,0.0000,2.0523,0.7599,-0.1121,0.0000
1.1842,5.4807,5.8249,0.0023,-0.0029,-0.0534,28.6652,9.7626,3.5797,-0.0000,-0.0000,-0.0000,0.0000,2.0095,0.7239,-0.1630,0.0000
0.8618,6.3793,6.1785,-0.0606,-0.0146,-0.0044,32.3151,11.6165,1.0773,-0.0000,-0.0000,-0.0000,0.0000,1.9842,0.7284,-0.1835,0.0000
0.8833,5.6183,6.7451,-0.1160,0.0141,-0.0012,31.0257,11.7981,4.0070,-0.0000,-0.0000,-0.0000,0.0000,2.0164,0.7227,-0.1386,0.0000
1.0924,5.4360,6.1298,0.1930,0.0013,-0.0960,30.4581,10.4477,5.6351,-0.0000,-0.0000,-0.0000,0.0000,2.0272,0.7181,-0.1076,0.0000
-2.1573,4.5769,9.1133,0.6841,1.7367,0.3407,27.6215,8.4747,11.7523,-0.0000,-0.0000,-0.0000,0.0000,1.9425,0.5697,0.1188,0.0000
-1.4542,3.2329,8.6485,-2.1889,-1.5017,-0.7533,30.4276,7.3395,10.0769,-0.0000,-0.0000,-0.0000,0.0000,1.8987,0.4547,0.0745,0.0000
-0.2300,2.6815,10.4836,0.3549,0.1558,0.4590,31.1340,7.0343,5.0323,-0.0000,-0.0000,-0.0000,0.0000,1.8832,0.3074,-0.1182,0.0000
1.7352,3.2134,10.3448,3.7797,0.5990,-0.3900,32.1472,6.3065,-0.5890,-0.0000,-0.0000,-0.0000,0.0000,1.9295,0.2643,-0.2752,0.0000
2.4016,3.1962,7.9122,1.1730,0.4541,-0.3559,33.2748,2.6199,6.5323,-0.0000,-0.0000,-0.0000,0.0000,2.2267,0.3542,-0.2476,1.0000
2.4228,4.2405,8.0367,0.0545,-0.0519,-0.0087,30.5130,0.6149,9.7672,-0.0000,-0.0000,-0.0000,0.0000,2.3252,0.5301,-0.2358,1.0000
1.0980,4.4675,9.0299,-0.2896,0.0993,0.0105,33.0215,-1.1948,13.1119,-0.0000,-0.0000,-0.0000,0.0000,2.3283,0.5110,-0.2267,1.0000
2.2931,4.1754,7.7447,0.0385,-0.0178,-0.0140,33.9127,-1.8585,9.6161,-0.0000,-0.0000,-0.0000,0.0000,2.4683,0.5219,-0.2807,1.0000
2.5481,4.3865,7.1425,-0.1490,-0.0668,0.1192,32.9437,-0.2258,10.6812,-0.0000,-0.0000,-0.0000,0.0000,2.4226,0.5417,-0.2610,1.0000
1.7384,4.8251,7.6529,0.0630,0.0919,-0.0949,34.2529,-0.5905,7.4951,-0.0000,-0.0000,-0.0000,0.0000,2.4067,0.5311,-0.2966,1.0000
2.3924,3.9648,7.4825,-0.2715,-0.0232,-0.0204,32.6645,0.2594,8.0475,-0.0000,-0.0000,-0.0000,0.0000,2.4259,0.5349,-0.2966,1.0000
2.8521,4.3430,7.6848,-0.2235,0.1696,-0.1258,38.7177,1.7990,15.2420,-0.0000,-0.0000,-0.0000,0.0000,2.4666,0.5431,-0.3307,1.0000
2.4180,4.4687,6.4586,0.1834,-0.1041,0.0542,34.8007,2.5726,8.3389,-0.0000,-0.0000,-0.0000,0.0000,2.3907,0.5432,-0.2866,1.0000
2.1095,4.3255,7.1465,-0.1117,-0.0210,-0.0289,35.0098,0.8392,5.9387,-0.0000,-0.0000,-0.0000,0.0000,2.3882,0.5359,-0.2997,1.0000
2.4607,4.4931,7.1501,0.0289,0.0376,0.0531,34.4727,-0.5768,7.0404,-0.0000,-0.0000,-0.0000,0.0000,2.3671,0.5191,-0.3042,1.0000
2.2392,4.7229,6.6142,0.0289,-0.1041,0.0904,35.3760,1.6815,6.0806,-0.0000,-0.0000,-0.0000,0.0000,2.3991,0.5241,-0.3075,1.0000
1.8889,4.4296,6.5128,0.2036,-0.0061,0.1245,32.7942,-1.2665,7.3486,-0.0000,-0.0000,-0.0000,0.0000,2.4025,0.5266,-0.3023,1.0000
1.8813,4.7345,7.9653,-0.1373,0.2229,0.0169,33.9447,-1.1246,7.5104,-0.0000,-0.0000,-0.0000,0.0000,2.4630,0.5406,-0.2972,1.0000
2.7392,4.3163,7.9581,0.0023,-0.0210,-0.0385,33.3267,-1.9424,7.6202,-0.0000,-0.0000,-0.0000,0.0000,2.5213,0.5488,-0.3159,1.0000
3.0951,5.6798,6.8596,-0.0307,0.2570,0.0766,32.2418,-4.0283,7.8171,-0.0000,-0.0000,-0.0000,0.0000,2.5652,0.5197,-0.3798,1.0000
2.2847,5.2927,6.8472,0.3442,-0.0551,-0.1514,29.3579,-4.1397,7.0236,-0.0000,-0.0000,-0.0000,0.0000,2.4681,0.5832,-0.3350,1.0000
3.4483,5.3530,6.1928,0.0225,-0.0423,0.2917,28.9581,-4.7943,9.0240,-0.0000,-0.0000,-0.0000,0.0000,2.7412,0.6284,-0.4632,1.0000
5.8636,4.6543,4.3030,0.2505,-0.1744,0.6667,27.3895,-4.4800,15.6036,-0.0000,-0.0000,-0.0000,0.0000,3.1306,0.7184,-0.6017,1.0000
5.6015,3.2724,6.0029,0.2260,0.2538,0.4025,19.9097,-7.1716,21.7514,-0.0000,-0.0000,-0.0000,0.0000,-3.0354,0.7023,-0.5337,1.0000
2.8258,6.0752,6.0803,-0.1074,-0.1755,-0.2771,19.6655,-5.7251,17.3309,-0.0000,-0.0000,-0.0000,0.0000,2.9243,0.7287,-0.4532,1.0000
0.8187,6.1526,6.0324,-0.5996,0.2325,-0.5349,17.7353,-3.4592,19.8975,-0.0000,-0.0000,-0.0000,0.0000,2.6197,0.8056,-0.2168,1.0000
4.1566,4.2257,7.0791,-0.2118,0.1292,0.0723,16.0660,-13.3484,21.1533,-0.0000,-0.0000,-0.0000,0.0000,3.1082,0.5524,-0.3607,1.0000
2.4970,5.1443,6.8452,-0.0084,-0.0615,-0.0747,14.0640,-13.5941,21.6354,-0.0000,-0.0000,-0.0000,0.0000,3.0238,0.5891,-0.3594,1.0000
4.2192,4.5082,6.5671,-0.0105,0.2165,-0.0864,14.1327,-11.9537,20.9427,-0.0000,-0.0000,-0.0000,0.0000,3.0995,0.5956,-0.3842,1.0000
3.3090,4.1208,6.8217,0.0545,-0.2426,0.0563,16.7038,-12.6190,21.8948,-0.0000,-0.0000,-0.0000,0.0000,3.0188,0.5771,-0.3725,1.0000
2.0289,5.3482,5.8867,0.0758,-0.0082,0.0180,16.2476,-6.1737,21.0983,-0.0000,-0.0000,-0.0000,0.0000,2.9901,0.6760,-0.4163,1.0000
2.3110,5.0334,7.1010,0.1173,0.0376,0.1533,15.0986,-6.8680,21.5012,-0.0000,-0.0000,-0.0000,0.0000,3.0389,0.6500,-0.4168,1.0000
3.3198,5.2488,6.4534,-0.0627,0.0312,0.0659,17.7673,-3.1265,20.4285,-0.0000,-0.0000,-0.0000,0.0000,-3.1287,0.6641,-0.4923,1.0000
2.1383,4.8123,8.4110,-0.2235,0.0759,-0.2675,18.9850,-3.2242,18.8934,-0.0000,-0.0000,-0.0000,0.0000,-3.1298,0.6303,-0.4576,1.0000
2.4583,5.4902,6.2786,0.1887,-0.1009,-0.0353,18.7668,-2.3544,18.7729,-0.0000,-0.0000,-0.0000,0.0000,2.9625,0.6530,-0.3807,1.0000
3.4044,5.4982,5.3309,-0.1223,0.0450,-0.0012,20.1660,-1.7456,19.2703,-0.0000,-0.0000,-0.0000,0.0000,2.9731,0.6979,-0.4022,1.0000
0.9898,5.2245,7.1385,0.0215,0.0408,0.2332,15.9058,-7.1838,21.5088,-0.0000,-0.0000,-0.0000,0.0000,2.8347,0.6154,-0.1352,1.0000
1.2328,5.0242,7.2594,0.0566,-0.0626,-0.0310,16.1346,-5.7861,21.5927,-0.0000,-0.0000,-0.0000,0.0000,2.8901,0.6469,-0.1982,1.0000
1.4132,6.1483,6.5428,0.1429,-0.0754,0.0787,18.1610,-3.8742,19.1574,-0.0000,-0.0000,-0.0000,0.0000,2.8118,0.6818,-0.2284,1.0000
1.8142,5.9910,6.8991,-0.0190,-0.0051,0.1096,15.7990,-5.0583,21.5820,-0.0000,-0.0000,-0.0000,0.0000,2.8695,0.7224,-0.2481,1.0000
2.0549,5.9807,6.1876,-0.1234,0.1547,0.0893,17.5400,-4.9820,21.5363,-0.0000,-0.0000,-0.0000,0.0000,2.8986,0.7067,-0.2532,1.0000
0.1475,4.5565,7.3137,-1.0640,0.6171,0.5016,14.5370,-10.1395,23.6176,-0.0000,-0.0000,-0.0000,0.0000,2.7431,0.6732,-0.0354,1.0000
4.2156,-0.9829,8.0308,0.9227,2.3524,1.1631,12.2467,-25.0336,10.4965,-0.0000,-0.0000,-0.0000,0.0000,2.9131,-0.0385,-0.5426,1.0000
2.1139,2.1982,8.5312,-0.1266,-0.0477,-0.2771,13.3789,-16.9739,13.3514,-0.0000,-0.0000,-0.0000,0.0000,2.9756,0.2696,-0.2613,1.0000
2.1945,1.6388,9.0654,-0.0211,-0.0413,-0.0449,19.2612,-17.2928,8.5754,-0.0000,-0.0000,-0.0000,0.0000,2.8160,0.1568,-0.2855,1.0000
2.9746,1.5083,8.3221,0.0215,0.0525,0.1032,17.5064,-15.2496,10.7437,-0.0000,-0.0000,-0.0000,0.0000,2.8284,0.1776,-0.2852,1.0000
0.0086,5.8849,7.6696,-0.5793,0.3135,-1.7440,13.8107,-11.1740,18.0450,-0.0000,-0.0000,-0.0000,0.0000,2.7712,0.4963,-0.0687,1.0000
1.8589,6.3055,5.7088,-0.0478,-0.0338,0.2289,17.4164,-5.7587,21.7285,-0.0000,-0.0000,-0.0000,0.0000,2.6913,0.7906,-0.2927,1.0000
2.5401,6.4647,5.2950,-0.1713,-0.0519,0.1085,18.4372,-6.8848,20.6284,-0.0000,-0.0000,-0.0000,0.0000,2.7627,0.7559,-0.3863,1.0000
4.0508,7.0174,4.1454,1.1006,-0.3577,-1.4073,18.1824,-3.9795,18.5287,-0.0000,-0.0000,-0.0000,0.0000,2.8445,0.8624,-0.5491,1.0000
-2.4231,0.9345,3.6741,-0.8574,1.2275,0.2353,10.3439,-0.3296,29.5715,-0.0000,-0.0000,-0.0000,0.0000,2.9608,1.1281,-0.2860,1.0000
4.5428,8.5916,3.7176,1.1517,0.6149,-0.3378,7.7759,-4.0695,36.1221,-0.0000,-0.0000,-0.0000,0.0000,-2.8184,0.9832,-0.5295,1.0000
2.2241,7.1044,4.0460,0.5264,0.4051,-0.2111,-3.8879,-5.5145,39.9750,-0.0000,-0.0000,-0.0000,0.0000,-2.5049,1.0482,-0.5356,1.0000
3.4766,6.3350,2.9471,-1.0576,0.0322,0.6582,-12.8983,-0.2731,39.9429,-0.0000,-0.0000,-0.0000,0.0000,-2.1253,1.0177,-0.6388,1.0000
1.8577,6.1702,4.0668,-0.2683,-0.4056,0.3099,-27.5406,-3.7781,30.3162,-0.0000,-0.0000,-0.0000,0.0000,-2.1366,0.8966,-0.2573,1.0000
4.5943,2.4177,7.4043,0.4785,0.0429,-0.4412,-30.6305,-1.6464,32.3349,-0.0000,-0.0000,-0.0000,0.0000,-1.7990,0.4994,-0.3961,1.0000
3.7324,0.6695,6.2906,-0.8744,1.4576,1.0342,-33.2687,-9.2972,22.9141,-0.0000,-0.0000,-0.0000,0.0000,-1.9646,0.3824,-0.2548,1.0000
1.3893,2.6172,6.1062,0.5008,0.6075,0.1458,-37.4588,-4.2679,18.0374,-0.0000,-0.0000,-0.0000,0.0000,-1.7771,0.2964,-0.1490,1.0000
1.9204,3.3131,8.0798,-0.0435,-0.3246,-0.0236,-36.3052,-7.3334,23.4131,-0.0000,-0.0000,-0.0000,0.0000,-1.7847,0.4030,-0.2215,1.0000
2.4196,3.7177,10.1281,1.1922,-0.2490,-0.3037,-35.1868,-5.5252,29.9515,-0.0000,-0.0000,-0.0000,0.0000,-1.7105,0.4925,-0.2427,1.0000
3.1706,4.2205,6.8492,-0.3407,-0.8200,-0.0832,-27.8763,-4.5105,38.6993,-0.0000,-0.0000,-0.0000,0.0000,-1.7696,0.5556,-0.4927,1.0000
6.6737,1.8387,5.9546,-0.3578,0.5052,0.5027,-25.5112,2.7786,42.1844,-0.0000,-0.0000,-0.0000,0.0000,-1.6422,0.3725,-0.6559,1.0000
2.7895,3.6926,6.7794,0.5147,-0.0072,-0.2441,-35.2173,5.1270,29.3945,-0.0000,-0.0000,-0.0000,0.0000,-1.5502,0.3772,-0.4495,1.0000
3.4786,2.0570,8.1724,0.7256,-0.1244,0.1948,-36.4655,-0.9674,30.2734,-0.0000,-0.0000,-0.0000,0.0000,-1.6461,0.3275,-0.3939,1.0000
1.9156,1.6679,9.4190,0.2047,0.7129,0.3898,-36.6928,-1.2238,25.3662,-0.0000,-0.0000,-0.0000,0.0000,-1.6403,0.2535,-0.3612,1.0000
4.4171,2.4716,6.4566,0.0002,0.1366,-0.1045,-29.5670,-0.7034,32.0465,-0.0000,-0.0000,-0.0000,0.0000,-1.6384,0.3237,-0.4637,1.0000
4.1159,5.0653,8.3775,-0.4121,-0.0391,-0.1546,-21.8979,-5.2917,37.6801,-0.0000,-0.0000,-0.0000,0.0000,-1.8228,0.4813,-0.4953,1.0000
3.1977,3.0725,6.6653,-0.0488,-0.4397,-0.0630,-32.0129,0.8698,30.5161,-0.0000,-0.0000,-0.0000,0.0000,-1.5441,0.3034,-0.4156,1.0000
1.4479,5.7341,6.7754,-0.3461,-0.2288,-0.0907,-35.2692,7.2067,25.0549,-0.0000,-0.0000,-0.0000,0.0000,-1.5360,0.6112,-0.2328,1.0000
0.9128,6.2736,5.7112,0.2026,-0.0583,-0.2185,-38.4308,6.0822,28.7384,-0.0000,-0.0000,-0.0000,0.0000,-1.7637,0.8418,-0.1250,1.0000
2.8242,5.8510,5.3225,-0.1160,-0.0008,-0.0811,-32.7271,5.4764,33.2672,-0.0000,-0.0000,-0.0000,0.0000,-1.6778,0.7313,-0.3366,1.0000
1.7923,7.0517,4.9287,-0.1266,-0.1883,-0.0971,-34.7687,9.0729,35.2631,-0.0000,-0.0000,-0.0000,0.0000,-1.6854,0.9282,-0.3811,1.0000
1.8813,6.6742,5.9646,-0.1138,0.0663,-0.2057,-31.7856,5.4840,30.6290,-0.0000,-0.0000,-0.0000,0.0000,-1.6700,0.7440,-0.3665,1.0000
2.1375,5.7169,6.4945,-0.2491,-0.2074,0.1245,-31.8649,5.3589,28.5965,-0.0000,-0.0000,-0.0000,0.0000,-1.7076,0.6982,-0.3709,1.0000
2.9746,4.9891,6.0655,-0.5953,-0.2809,0.1053,-28.8361,2.0966,32.5714,-0.0000,-0.0000,-0.0000,0.0000,-1.7456,0.6234,-0.4510,1.0000
3.2991,5.1567,6.3608,0.5083,0.4647,-0.5956,-29.6967,1.2207,30.9464,-0.0000,-0.0000,-0.0000,0.0000,-1.7575,0.5832,-0.3974,1.0000
0.0290,0.1883,9.3156,-4.0841,0.3731,0.3269,-30.3726,-8.6899,27.8641,-0.0000,-0.0000,-0.0000,0.0000,-1.9074,0.4432,-0.2465,1.0000
1.2265,-0.7087,9.4649,0.6276,-0.2053,0.3471,-28.5797,-20.8801,14.8071,-0.0000,-0.0000,-0.0000,0.0000,-2.1063,-0.0274,-0.0784,1.0000
2.4655,3.7860,6.4454,-0.5634,-0.4141,-0.6446,-25.8606,-6.1752,33.8120,-0.0000,-0.0000,-0.0000,0.0000,-2.0165,0.4636,-0.3231,1.0000
0.7309,4.7620,7.7997,0.1312,-0.5238,-0.5637,-23.2483,-2.4490,34.7733,-0.0000,-0.0000,-0.0000,0.0000,-2.1191,0.4739,-0.3022,1.0000
1.5353,4.2736,7.2910,-0.0275,0.3678,0.0286,-22.6654,-16.2079,35.4675,-0.0000,-0.0000,-0.0000,0.0000,-2.3943,0.4765,-0.2795,1.0000
0.7416,2.8546,11.0989,-0.5868,0.3721,0.4931,-9.4574,-29.5776,28.3875,-0.0000,-0.0000,-0.0000,0.0000,-2.7409,0.3250,-0.2437,1.0000
3.3414,2.6643,8.5782,0.0651,0.4818,0.3738,-14.4211,-23.9273,33.3298,-0.0000,-0.0000,-0.0000,0.0000,-2.4816,0.3192,-0.4235,1.0000
2.1107,-0.9098,10.0112,0.9962,0.1121,0.2885,-29.8523,-21.8628,18.7134,-0.0000,-0.0000,-0.0000,0.0000,-2.2441,-0.0425,-0.1475,1.0000
2.4459,2.5023,9.7729,0.8449,-0.6676,-0.6542,-26.9958,-13.3926,31.1081,-0.0000,-0.0000,-0.0000,0.0000,-2.1026,0.3422,-0.2335,1.0000
2.7695,3.7872,9.0200,0.5956,0.8791,1.0246,-21.3776,-12.5397,35.4446,-0.0000,-0.0000,-0.0000,0.0000,-2.2420,0.4705,-0.3479,1.0000
2.7185,4.8458,7.2586,-0.1181,0.0450,-0.1610,-22.5754,-7.8506,36.1404,-0.0000,-0.0000,-0.0000,0.0000,-2.1568,0.5305,-0.3471,1.0000
1.8753,3.9488,8.6293,-0.1564,-0.0530,-0.2366,-23.6404,-14.7766,32.4524,-0.0000,-0.0000,-0.0000,0.0000,-2.1847,0.4348,-0.2983,1.0000
3.2324,4.0434,7.6166,-0.1106,0.0067,0.0979,-24.6033,-9.4131,33.1253,-0.0000,-0.0000,-0.0000,0.0000,-2.1579,0.4457,-0.3333,1.0000
3.0624,3.2812,7.2259,-0.2257,1.0347,0.3887,-24.5178,-11.3800,33.6746,-0.0000,-0.0000,-0.0000,0.0000,-2.1199,0.4249,-0.3466,1.0000
3.0824,3.2249,8.7235,0.5466,0.1079,-0.9418,-29.8477,-4.5303,31.7230,-0.0000,-0.0000,-0.0000,0.0000,-1.8883,0.4598,-0.2535,1.0000
2.5696,4.1240,7.5248,-0.2374,-0.1084,-0.0768,-28.2730,-8.5693,33.6761,-0.0000,-0.0000,-0.0000,0.0000,-2.0110,0.5227,-0.3388,1.0000
2.4044,3.7142,7.4557,0.1216,0.0685,-0.0193,-28.9124,-9.1507,32.2388,-0.0000,-0.0000,-0.0000,0.0000,-2.0204,0.4477,-0.3101,1.0000
3.9950,3.0621,9.1078,-0.1223,-0.0349,-0.0928,-26.6830,-11.0916,29.6951,-0.0000,-0.0000,-0.0000,0.0000,-2.0285,0.3005,-0.3663,1.0000
2.9698,3.9177,7.7407,-0.1127,-0.0306,-0.1365,-27.2919,-9.6100,31.8253,-0.0000,-0.0000,-0.0000,0.0000,-2.0343,0.3940,-0.3609,1.0000
2.7117,3.7692,7.7251,-0.1990,-0.0018,0.2055,-25.5112,-9.3231,29.6112,-0.0000,-0.0000,-0.0000,1.0000,-1.9234,0.3607,-0.3535,1.0000
2.6179,3.6599,7.6648,0.2324,0.0216,0.4398,-29.2053,-7.1014,29.9835,-0.0000,-0.0000,-0.0000,0.0000,-1.8722,0.4181,-0.3500,1.0000
2.8178,4.0481,7.5631,0.0119,-0.0540,0.2854,-33.3588,0.0992,29.3854,-0.0000,-0.0000,-0.0000,0.0000,-1.7021,0.4903,-0.3155,1.0000
2.4064,3.0609,9.7717,-0.0488,0.4956,-0.0736,-37.4130,4.1122,28.6667,-0.0000,-0.0000,-0.0000,0.0000,-1.5329,0.4241,-0.3130,1.0000
2.2121,3.3678,7.2199,-0.2821,-0.6410,0.0446,-37.4802,4.8431,26.3931,-0.0000,-0.0000,-0.0000,0.0000,-1.5226,0.4821,-0.3057,1.0000
2.7364,4.6259,6.6345,0.1078,0.1750,-0.3858,-38.1058,10.1852,26.1810,-0.0000,-0.0000,-0.0000,0.0000,-1.4862,0.6303,-0.3012,1.0000
1.9567,4.8889,6.9933,0.1323,0.1015,0.1501,-39.8254,9.3155,27.1301,-0.0000,-0.0000,-0.0000,0.0000,-1.4813,0.5815,-0.2781,1.0000
2.5896,4.0960,6.8724,0.1237,-0.0690,-0.0545,-36.0977,11.1145,26.6510,-0.0000,-0.0000,-0.0000,0.0000,-1.4051,0.5453,-0.3344,1.0000
3.0269,3.8303,7.4897,0.3176,0.1388,-0.0300,-36.1847,10.7468,25.3128,-0.0000,-0.0000,-0.0000,0.0000,-1.3818,0.4911,-0.3316,1.0000
2.2213,4.3482,6.9973,-0.4355,-0.3491,-0.1280,-35.6552,9.5703,27.8000,-0.0000,-0.0000,-0.0000,0.0000,-1.4049,0.4972,-0.3429,1.0000
1.7807,4.1304,7.3293,-0.0009,-0.0349,-0.1503,-36.6882,8.9874,28.2379,-0.0000,-0.0000,-0.0000,0.0000,-1.5129,0.4993,-0.2807,1.0000
3.4283,5.1032,5.5552,-0.2086,-0.3758,0.1980,-30.5466,4.1687,32.2220,-0.0000,-0.0000,-0.0000,0.0000,-1.6022,0.6201,-0.4342,1.0000
3.5500,4.4320,5.8724,-0.0669,-0.0839,-0.2249,-28.0441,0.6302,33.5587,-0.0000,-0.0000,-0.0000,0.0000,-1.6621,0.5089,-0.4717,1.0000
3.4782,3.5677,6.6732,-0.5857,-0.2415,-0.0417,-26.2924,-2.9404,33.1284,-0.0000,-0.0000,-0.0000,0.0000,-1.7588,0.4868,-0.4801,1.0000
4.3309,3.3151,10.0682,0.2942,0.3294,0.4995,-20.6848,-12.8006,29.2969,-0.0000,-0.0000,-0.0000,0.0000,-1.9201,0.3067,-0.5261,1.0000
2.9004,3.7130,7.1816,-0.0137,0.0226,-0.1003,-21.7941,-5.6931,29.8828,-0.0000,-0.0000,-0.0000,0.0000,-1.9016,0.4277,-0.4325,1.0000
3.3601,3.1747,7.7574,-0.0329,-0.1297,-0.0747,-19.4382,-9.7137,31.2225,-0.0000,-0.0000,-0.0000,0.0000,-2.0172,0.3857,-0.4327,1.0000
3.1295,4.6886,6.5835,0.4327,-0.0168,-0.2100,-15.6845,-9.2606,34.0195,-0.0000,-0.0000,-0.0000,0.0000,-2.1618,0.4428,-0.4458,1.0000
3.1606,3.7297,7.3636,-0.0883,0.0919,-0.0129,-11.9080,-13.2217,32.5653,-0.0000,-0.0000,-0.0000,0.0000,-2.2456,0.4611,-0.4583,1.0000
2.3206,4.2924,6.9410,-0.7349,-0.0434,0.4111,-7.8690,-18.4250,31.0638,-0.0000,-0.0000,-0.0000,0.0000,-2.3705,0.4261,-0.4527,1.0000
2.8665,4.0729,7.1034,0.1173,0.0748,-0.0736,-7.2357,-14.2456,31.4774,-0.0000,-0.0000,-0.0000,0.0000,-2.4152,0.4341,-0.4701,1.0000
3.2452,3.0194,8.0076,-0.1394,0.1121,-0.1109,-3.6423,-18.4875,25.8011,-0.0000,-0.0000,-0.0000,0.0000,-2.5169,0.2770,-0.4853,1.0000
1.0565,4.2409,5.4554,0.9227,0.4434,-0.4124,-2.4292,-16.6397,30.2551,-0.0000,-0.0000,-0.0000,0.0000,-2.5632,0.3847,-0.4539,1.0000
4.3489,3.1308,10.6911,-0.3737,0.2336,-0.1109,-3.4210,-22.7615,22.6074,-0.0000,-0.0000,-0.0000,0.0000,-2.6658,0.2416,-0.4551,1.0000
2.5780,3.6910,7.4059,-0.0957,-0.0551,0.1394,-5.3299,-18.7225,24.6628,-0.0000,-0.0000,-0.0000,0.0000,-2.5648,0.3549,-0.3866,1.0000
2.4998,3.6288,8.0751,0.3176,0.1111,0.0382,-8.6700,-18.0786,25.3647,-0.0000,-0.0000,-0.0000,0.0000,-2.5282,0.4159,-0.3082,1.0000
2.5979,4.4452,8.1612,0.2974,0.3699,0.2651,-7.1945,-13.0890,26.7410,-0.0000,-0.0000,-0.0000,0.0000,-2.5257,0.4739,-0.2656,1.0000
2.4770,5.3717,6.7255,-0.4632,-0.3513,-0.0289,-0.8865,-5.5450,29.6890,-0.0000,-0.0000,-0.0000,0.0000,-2.6636,0.6935,-0.3533,1.0000
2.5848,4.3339,8.1118,-0.5431,-0.5217,-0.0885,4.4418,-8.1696,27.3376,-0.0000,-0.0000,-0.0000,0.0000,-2.8437,0.6267,-0.3584,1.0000
2.4116,5.3055,6.7243,-0.1767,-0.0562,-0.1589,10.0143,-10.9085,23.1934,-0.0000,-0.0000,-0.0000,0.0000,-3.0112,0.5981,-0.3680,1.0000
1.2939,4.4799,5.9498,-0.0254,-0.1265,0.0393,12.3230,-7.8171,25.3326,-0.0000,-0.0000,-0.0000,0.0000,-3.0730,0.6197,-0.4181,1.0000
2.8278,4.0705,8.1193,-0.9778,-1.0202,0.6134,10.5850,-14.2639,22.0001,-0.0000,-0.0000,-0.0000,0.0000,-2.9829,0.4152,-0.4587,1.0000
3.1646,4.2233,6.7690,-0.4824,-0.0402,-0.0843,11.9415,-15.2649,19.1345,-0.0000,-0.0000,-0.0000,0.0000,-2.9905,0.3958,-0.4419,1.0000
2.1746,5.2425,6.6341,-0.1447,-0.0349,0.2257,7.8217,-9.5963,24.7177,-0.0000,-0.0000,-0.0000,0.0000,-2.9234,0.5979,-0.3281,1.0000
2.6626,5.0912,7.4155,-0.0978,-0.1137,0.0851,8.5236,-12.1536,23.2590,-0.0000,-0.0000,-0.0000,0.0000,-2.8707,0.5751,-0.3720,1.0000
0.2301,5.4779,10.2215,-0.0148,-0.3214,0.0648,8.0734,-14.0869,23.3597,-0.0000,-0.0000,-0.0000,0.0000,-2.9742,0.5366,-0.2105,1.0000
1.8454,4.0777,8.0615,0.0630,-0.0573,-0.1759,8.7326,-13.2614,23.4299,-0.0000,-0.0000,-0.0000,0.0000,-3.0127,0.5142,-0.2599,1.0000
0.7009,3.8794,7.6732,-0.6283,-0.0359,0.4153,11.4944,-13.3484,22.8455,-0.0000,-0.0000,-0.0000,0.0000,-3.1011,0.5447,-0.3195,1.0000
1.8945,0.6759,9.2773,-2.1953,-1.2386,0.1128,12.9684,-19.6381,15.8020,-0.0000,-0.0000,-0.0000,0.0000,2.9945,0.3730,-0.1015,1.0000
3.2639,4.4975,6.2523,0.5466,0.2762,-0.3900,19.4168,-15.5090,17.6804,-0.0000,-0.0000,-0.0000,0.0000,2.9590,0.4561,-0.4849,1.0000
3.4970,4.1994,6.5591,-0.0808,-0.1073,-0.0672,18.5593,-14.9429,16.2613,-0.0000,-0.0000,-0.0000,0.0000,2.9470,0.4757,-0.5175,1.0000