a02a5c6f-6e8f-4019-aba2-1b2cd4104a30,DS,1659768442519
Accelerometer x,Accelerometer y,Accelerometer z,Gyroscope x,Gyroscope y,Gyroscope z,Magnetometer x,Magnetometer y,Magnetometer z,GPS-Longitude,GPS-Latitude,GPS-Speed,Proximity_ON/OFF,Orientation yaw,Orientation pitch,Orientation roll,Screen
-0.4164,6.3398,6.9961,0.1855,0.1281,-0.0609,-40.5045,27.2873,-8.4320,-0.0000,-0.0000,-0.0000,0.0000,-0.8768,0.7738,0.0070,1.0000
3.2224,6.8059,1.1215,1.0654,0.3997,0.3141,-12.8296,36.0519,-36.9873,-0.0000,-0.0000,-0.0000,0.0000,0.5617,1.2138,-0.9428,1.0000
4.8645,6.3007,3.3649,-0.8222,0.1068,-0.2941,1.3977,45.3522,-30.9189,-0.0000,-0.0000,-0.0000,0.0000,0.7306,0.9216,-0.9438,1.0000
3.8537,6.3594,4.8708,0.0225,-0.1670,0.0787,-2.3285,46.2631,-28.9871,-0.0000,-0.0000,-0.0000,0.0000,0.5589,0.8666,-0.9088,1.0000
6.0217,5.6994,3.6992,-2.0579,-1.5401,-2.9488,-17.0105,48.3063,-22.6883,-0.0000,-0.0000,-0.0000,0.0000,0.5171,0.8928,-0.9753,1.0000
-0.2117,6.3833,7.2530,-0.0563,0.0812,0.0329,-44.8380,25.5478,0.1877,-0.0000,-0.0000,-0.0000,0.0000,-1.0864,0.7941,-0.1094,1.0000
-1.2787,6.8601,5.8971,-0.3247,0.9409,0.3652,-44.4229,22.6212,-0.1999,-0.0000,-0.0000,-0.0000,0.0000,-1.2325,0.8871,-0.1359,1.0000
0.8450,7.2855,2.3102,0.8992,-0.5196,-0.3293,-25.2823,43.7195,-21.9879,-0.0000,-0.0000,-0.0000,0.0000,0.1041,1.0200,-0.7708,1.0000
5.6342,6.7975,1.1598,-0.2480,0.1526,-0.0449,-17.4347,46.6400,-21.4066,-0.0000,-0.0000,-0.0000,0.0000,0.1607,0.9718,-0.9729,1.0000
6.1525,6.6554,4.6019,1.0132,-0.0839,-0.5317,-17.1738,48.8632,-18.6447,-0.0000,-0.0000,-0.0000,0.0000,0.1377,0.8479,-0.9254,1.0000
3.8445,6.5082,2.7611,-0.5474,0.0493,0.0883,-16.6534,46.9925,-16.2674,-0.0000,-0.0000,-0.0000,0.0000,-0.0524,0.7877,-0.7780,1.0000
4.4048,5.9823,2.5389,0.0577,-0.2437,0.1394,-13.0463,46.8201,-18.5059,-0.0000,-0.0000,-0.0000,0.0000,0.0930,0.7757,-0.9065,1.0000
5.3098,6.2169,3.8098,0.2004,0.0503,0.1170,-16.3635,48.9502,-15.9286,-0.0000,-0.0000,-0.0000,0.0000,0.0505,0.7841,-0.9305,1.0000
4.0045,6.2137,2.8154,-0.3940,-0.1062,0.0723,-21.2143,47.4854,-13.8275,-0.0000,-0.0000,-0.0000,0.0000,0.0881,0.8439,-0.9879,1.0000
3.6721,6.4016,3.0117,-0.1937,-0.0168,0.2726,-25.7721,49.1516,-12.1063,-0.0000,-0.0000,-0.0000,0.0000,-0.0310,0.8788,-0.9899,1.0000
3.7631,6.1754,2.4283,-0.3386,-0.0828,-0.0470,-23.1110,47.8897,-13.7863,-0.0000,-0.0000,-0.0000,0.0000,-0.0525,0.8713,-0.9640,1.0000
4.4147,6.0042,1.8673,0.1813,0.0322,-0.0374,-23.8846,47.0764,-14.8697,-0.0000,-0.0000,-0.0000,0.0000,-0.0125,0.8970,-0.9941,1.0000
2.6522,4.8801,3.2926,0.2281,0.2900,-0.7799,-18.5211,46.5591,-8.1070,-0.0000,-0.0000,-0.0000,0.0000,-0.0161,0.7980,-0.9864,1.0000
5.8557,8.3872,5.0049,-0.1958,-0.3449,0.4920,-18.6584,47.6089,-13.2538,-0.0000,-0.0000,-0.0000,0.0000,-0.1215,0.8249,-0.9251,1.0000
4.9898,5.8586,2.9271,-0.1586,0.0237,0.1341,-18.8431,48.6954,-13.7100,-0.0000,-0.0000,-0.0000,0.0000,-0.0129,0.8262,-0.9805,1.0000
4.2651,6.2464,2.3198,-0.1532,0.0152,0.0276,-19.2184,47.5174,-15.4602,-0.0000,-0.0000,-0.0000,0.0000,0.0832,0.8501,-1.0172,1.0000
6.0185,5.8175,4.0891,-0.0392,0.1196,0.0233,-16.9968,47.4792,-16.7953,-0.0000,-0.0000,-0.0000,0.0000,0.0696,0.7892,-1.0146,1.0000
0.9096,8.0054,1.2863,-0.5623,0.4509,1.1152,-28.9932,31.4697,-26.1246,-0.0000,-0.0000,-0.0000,0.0000,0.2748,1.1999,-1.3546,1.0000
2.6849,6.1511,7.4087,-1.3985,-0.7124,0.0063,-38.2553,30.8258,-7.5119,-0.0000,-0.0000,-0.0000,0.0000,-0.9458,0.8482,-0.2371,1.0000
-0.1518,7.8493,3.5887,0.9887,0.8280,0.3258,-38.3286,26.4236,-18.1839,-0.0000,-0.0000,-0.0000,0.0000,-0.7606,1.1000,-0.2482,1.0000
3.6302,7.9012,1.9966,0.1908,0.0589,-0.0726,-34.5047,37.2955,-13.3163,-0.0000,-0.0000,-0.0000,0.0000,-0.0796,1.1227,-0.9799,1.0000
2.6829,8.3222,1.6063,0.4987,0.3401,0.0734,-36.3434,35.1318,-5.6564,-0.0000,-0.0000,-0.0000,0.0000,-0.2135,1.1618,-0.9610,1.0000
3.1498,8.2631,3.8936,0.3869,0.1665,-0.3027,-38.6078,36.5692,-2.3987,-0.0000,-0.0000,-0.0000,0.0000,-0.4769,1.0831,-0.7658,1.0000
2.7216,7.3031,3.1861,0.2281,0.3081,0.3226,-28.4103,43.4143,-7.6706,-0.0000,-0.0000,-0.0000,0.0000,-0.2950,0.9641,-0.7814,1.0000
2.7675,6.5050,2.3290,-0.3301,-0.1478,0.2449,-27.9343,44.7723,-10.7071,-0.0000,-0.0000,-0.0000,0.0000,-0.2174,0.9663,-0.8152,1.0000
2.3206,7.8027,3.6749,0.8332,0.0972,-0.2579,-31.3400,41.7221,-7.6614,-0.0000,-0.0000,-0.0000,0.0000,-0.2046,0.9988,-0.9050,1.0000
3.5624,6.7400,2.7855,-0.0158,0.1590,-0.0065,-31.4819,45.1126,-9.1263,-0.0000,-0.0000,-0.0000,0.0000,-0.1963,1.0397,-0.9387,1.0000
3.1410,6.8075,3.5428,-0.5218,-0.3385,0.1351,-29.4373,41.3986,-5.4077,-0.0000,-0.0000,-0.0000,0.0000,-0.3276,0.9813,-0.8405,1.0000
4.0213,6.4440,4.6533,-0.3183,0.1217,-0.0896,-33.2062,36.4120,-3.7079,-0.0000,-0.0000,-0.0000,0.0000,-0.6527,0.8687,-0.7436,1.0000
2.0605,6.6255,5.3018,0.6809,-0.1031,-0.1866,-36.7233,31.6177,-1.4389,-0.0000,-0.0000,-0.0000,0.0000,-0.8213,0.8188,-0.6020,1.0000
-0.0345,7.4523,4.8564,0.8854,0.9835,0.9916,-36.1496,30.0369,-6.4377,-0.0000,-0.0000,-0.0000,0.0000,-0.9925,0.9366,-0.3197,1.0000
0.5808,5.4695,6.7335,-0.7082,0.9484,-0.5072,-41.9296,26.0391,6.9473,-0.0000,-0.0000,-0.0000,0.0000,-1.0325,0.8247,-0.3545,1.0000
5.5436,3.7166,4.5931,-0.4888,0.7332,0.0031,-26.3382,38.1134,13.1943,-0.0000,-0.0000,-0.0000,0.0000,-0.7606,0.4030,-0.7290,1.0000
3.3924,3.4480,7.3005,-1.1876,1.6280,0.7530,-30.6763,38.8641,2.8763,-0.0000,-0.0000,-0.0000,0.0000,-0.8013,0.5771,-0.4693,1.0000
0.5266,-0.3883,8.7051,0.6063,0.4978,0.3205,-43.3914,16.6748,12.1185,-0.0000,-0.0000,-0.0000,0.0000,-1.2534,-0.0325,-0.2635,1.0000
1.8178,-0.3512,9.2957,0.6841,-0.0754,0.0925,-40.8112,19.1711,11.4426,-0.0000,-0.0000,-0.0000,0.0000,-1.1738,0.0792,-0.2869,1.0000
2.4603,2.7892,7.1293,-0.7114,-0.1489,0.1458,-40.1855,20.7108,20.7382,-0.0000,-0.0000,-0.0000,0.0000,-1.1198,0.2855,-0.3948,1.0000
8.4218,0.8659,-0.3210,0.2356,0.0578,0.6348,1.7609,-2.0157,-60.3638,-0.0000,-0.0000,-0.0000,1.0000,1.7352,0.5424,-1.6881,1.0000
6.6102,3.0394,-0.2624,0.1898,-0.0093,-0.1269,6.9229,6.3309,-60.4004,-0.0000,-0.0000,-0.0000,1.0000,1.5967,0.4876,-1.6035,1.0000
9.2032,2.4692,-0.1997,-0.1021,-0.0817,-0.2920,9.0378,7.9605,-61.7493,-0.0000,-0.0000,-0.0000,1.0000,1.5721,0.3832,-1.5521,1.0000
8.4538,1.8678,-0.2472,0.0524,0.0546,0.2161,8.9691,5.8960,-61.9919,-0.0000,-0.0000,-0.0000,1.0000,1.5608,0.3700,-1.5813,1.0000
8.4753,3.1870,-1.1063,-0.2171,-0.0104,-0.2132,4.5288,2.2766,-63.3240,-0.0000,-0.0000,-0.0000,1.0000,1.6423,0.3768,-1.6843,1.0000
8.6102,1.9125,-0.6626,-0.0020,-0.0168,0.1906,8.5556,3.9688,-63.6185,-0.0000,-0.0000,-0.0000,1.0000,1.6173,0.3226,-1.6148,1.0000
8.2495,2.2234,-0.3841,0.2015,-0.1595,0.0776,3.9963,7.9178,-62.0667,-0.0000,-0.0000,-0.0000,1.0000,1.5187,0.3094,-1.6164,1.0000
6.8872,3.3000,-0.0337,0.3517,0.2314,0.2832,6.6254,7.1533,-63.9328,-0.0000,-0.0000,-0.0000,1.0000,1.5028,0.3375,-1.6156,1.0000
9.1269,1.9843,0.1391,-0.0989,-0.1861,-0.1440,11.0809,6.6711,-63.0508,-0.0000,-0.0000,-0.0000,1.0000,1.5318,0.2637,-1.5360,1.0000
10.1740,2.4017,0.9040,-0.1106,0.0258,-0.2111,15.1718,10.4370,-59.6252,-0.0000,-0.0000,-0.0000,1.0000,1.5005,0.2855,-1.4919,1.0000
9.6648,3.1631,-0.7951,-0.0318,-0.2181,-0.1589,10.1410,5.1453,-63.5818,-0.0000,-0.0000,-0.0000,1.0000,1.4919,0.3166,-1.5231,1.0000
8.1006,2.3862,1.0608,0.1173,0.0653,0.0766,15.4297,5.2917,-58.3176,-0.0000,-0.0000,-0.0000,1.0000,1.5315,0.2906,-1.5033,1.0000
8.7451,1.3595,0.5337,-0.1117,-0.1137,0.0329,19.6976,-2.0004,-57.0297,-0.0000,-0.0000,-0.0000,1.0000,1.6547,0.2042,-1.4646,1.0000
8.6158,0.1823,1.4391,-0.1127,0.2229,0.5432,18.4402,0.7004,-55.9662,-0.0000,-0.0000,-0.0000,1.0000,1.5907,0.2386,-1.4917,1.0000
9.0575,2.3945,1.5576,0.0598,0.0226,-0.1088,19.5450,1.3092,-59.6390,-0.0000,-0.0000,-0.0000,1.0000,1.5624,0.2284,-1.4608,1.0000
8.4590,2.1364,-0.2600,-0.0456,-0.0583,0.0457,11.9995,1.6586,-62.3352,-0.0000,-0.0000,-0.0000,1.0000,1.5926,0.2843,-1.5088,1.0000
9.1816,2.1567,0.6359,0.0524,0.0258,-0.0044,19.2642,-3.3234,-59.7473,-0.0000,-0.0000,-0.0000,1.0000,1.6828,0.2179,-1.4828,1.0000
8.5603,2.6148,0.8769,0.1376,0.0216,0.1618,21.1609,-3.7277,-57.2952,-0.0000,-0.0000,-0.0000,1.0000,1.7153,0.2700,-1.4561,1.0000
9.2598,1.5438,0.3753,0.0225,0.0365,-0.1812,20.9763,-8.5571,-56.7261,-0.0000,-0.0000,-0.0000,1.0000,1.8278,0.1979,-1.4567,1.0000
8.7706,1.8403,1.4272,-0.0392,0.1654,-0.0278,23.6572,-10.3210,-52.4231,-0.0000,-0.0000,-0.0000,1.0000,1.8407,0.2359,-1.4706,1.0000
9.1493,1.8846,0.0684,-0.0297,0.0216,0.0808,24.4690,-11.8774,-56.9016,-0.0000,-0.0000,-0.0000,1.0000,1.8865,0.2355,-1.4390,1.0000
9.4913,1.3355,0.9068,0.0204,0.3412,-0.0726,27.2781,-18.9194,-50.2213,-0.0000,-0.0000,-0.0000,1.0000,2.0435,0.1996,-1.3956,1.0000
9.3991,1.6723,0.1347,0.1205,0.1366,0.0137,28.1418,-24.4690,-47.7509,-0.0000,-0.0000,-0.0000,1.0000,2.2338,0.2074,-1.4255,1.0000
8.7231,1.9660,0.5696,0.2366,0.1622,-0.0129,29.2328,-29.9057,-39.0778,-0.0000,-0.0000,-0.0000,1.0000,2.4388,0.2199,-1.3988,1.0000
8.6094,1.5997,0.1818,0.3027,-0.0892,0.0670,28.3905,-31.6940,-29.2435,-0.0000,-0.0000,-0.0000,1.0000,2.6148,0.2205,-1.4414,1.0000
9.2147,2.4835,-1.5700,0.3027,-0.2319,-0.2910,24.7940,-32.7118,-32.5882,-0.0000,-0.0000,-0.0000,1.0000,2.7284,0.2389,-1.5530,1.0000
7.9438,2.9241,-0.5070,0.0886,0.1654,0.0712,26.9989,-26.4877,-25.3143,-0.0000,-0.0000,-0.0000,1.0000,2.7959,0.3702,-1.6352,1.0000
8.8217,2.6460,0.2552,-0.1074,-0.1872,-0.0140,27.6871,-26.2482,-25.0336,-0.0000,-0.0000,-0.0000,1.0000,2.6735,0.3454,-1.5653,1.0000
8.7395,2.4141,0.8214,-0.2054,-0.1925,-0.0885,26.4328,-26.8433,-27.7893,-0.0000,-0.0000,-0.0000,1.0000,2.5178,0.2976,-1.5048,1.0000
8.8472,2.4069,1.2512,-0.1511,0.1175,-0.0129,28.3218,-27.4460,-30.1422,-0.0000,-0.0000,-0.0000,1.0000,2.4041,0.2708,-1.4747,1.0000
8.7870,2.0861,0.9842,0.0524,0.1782,0.1810,28.0823,-27.1759,-29.3198,-0.0000,-0.0000,-0.0000,1.0000,2.3773,0.2652,-1.4872,1.0000
7.7515,2.3191,2.4850,0.8971,1.6525,1.0438,30.9387,-30.5115,-27.3575,-0.0000,-0.0000,-0.0000,1.0000,2.4098,0.2402,-1.3578,1.0000
8.3983,2.5358,0.7664,0.0119,-0.0008,0.1064,29.6753,-30.1804,-29.5898,-0.0000,-0.0000,-0.0000,1.0000,2.4504,0.2793,-1.4365,1.0000
7.2235,3.1651,1.1335,0.0279,-0.2533,0.0648,30.1239,-28.8406,-33.0414,-0.0000,-0.0000,-0.0000,1.0000,2.3901,0.2915,-1.4296,1.0000
7.6717,2.0717,0.3059,-0.2193,-0.4663,-0.1823,26.3794,-28.8132,-32.6675,-0.0000,-0.0000,-0.0000,1.0000,2.4115,0.2424,-1.4274,1.0000
8.2443,2.7154,0.8430,0.1280,0.1100,-0.1194,27.8152,-25.9979,-30.6168,-0.0000,-0.0000,-0.0000,1.0000,2.3844,0.2682,-1.4788,1.0000
8.0292,3.1519,0.7157,-0.0978,-0.1595,-0.2100,31.1935,-26.0193,-33.2611,-0.0000,-0.0000,-0.0000,1.0000,2.3547,0.2866,-1.4627,1.0000
8.4147,1.8503,1.8605,-0.0179,0.1409,0.1895,29.8111,-26.8631,-30.8456,-0.0000,-0.0000,-0.0000,1.0000,2.3074,0.2945,-1.4401,1.0000
8.1182,3.2792,0.7819,-0.0638,-0.0168,-0.0885,30.9952,-22.3511,-37.5198,-0.0000,-0.0000,-0.0000,1.0000,2.2184,0.3519,-1.4626,1.0000
8.2507,3.2225,1.8960,-0.0925,0.0663,-0.1407,30.7205,-21.9177,-34.8373,-0.0000,-0.0000,-0.0000,1.0000,2.2058,0.3165,-1.4619,1.0000
7.7650,2.9620,1.4527,-0.2054,-0.2170,0.0009,30.3802,-18.0252,-41.4627,-0.0000,-0.0000,-0.0000,1.0000,2.0550,0.3683,-1.4617,1.0000
7.6653,3.6371,2.0145,-0.0531,-0.0338,0.0190,33.2581,-11.3098,-43.2846,-0.0000,-0.0000,-0.0000,1.0000,1.8755,0.3711,-1.4398,1.0000
7.9203,3.4400,1.5888,-0.0222,-0.0189,0.0371,24.2889,-7.5150,-53.2028,-0.0000,-0.0000,-0.0000,1.0000,1.7164,0.4165,-1.4705,1.0000
7.7307,3.8949,1.8074,-0.1841,0.0983,0.1490,22.3251,-6.9199,-54.7241,-0.0000,-0.0000,-0.0000,1.0000,1.6741,0.4653,-1.4697,1.0000
7.5272,3.5928,2.1195,-0.1788,-0.1861,0.0308,26.5671,7.4219,-53.9001,-0.0000,-0.0000,-0.0000,1.0000,1.3194,0.4272,-1.3552,1.0000
6.9123,3.5047,2.2101,-0.2683,-0.1989,0.0137,22.2031,14.0030,-54.2313,-0.0000,-0.0000,-0.0000,1.0000,1.1850,0.4347,-1.3964,1.0000
8.6625,2.7940,2.2081,-0.2523,-0.0327,0.0073,20.1279,18.6905,-56.6101,-0.0000,-0.0000,-0.0000,1.0000,1.0563,0.3360,-1.3645,1.0000
7.9614,2.9416,2.2875,-0.0148,-0.2117,-0.1099,22.7951,21.6888,-55.1743,-0.0000,-0.0000,-0.0000,1.0000,1.0769,0.3084,-1.3123,1.0000
8.6234,2.6767,1.8114,-0.0456,0.0365,-0.0502,17.9977,19.5236,-57.6538,-0.0000,-0.0000,-0.0000,1.0000,1.1690,0.3115,-1.3459,1.0000
8.4705,2.0075,1.8868,0.0481,0.0312,0.0063,22.0230,16.2369,-56.6315,-0.0000,-0.0000,-0.0000,1.0000,1.3082,0.2932,-1.3300,1.0000
8.4406,2.5282,1.8745,0.0396,0.1036,0.0542,21.2524,15.0803,-57.5058,-0.0000,-0.0000,-0.0000,1.0000,1.3677,0.3206,-1.3287,1.0000
8.9594,2.3702,1.6071,-0.0329,-0.0242,-0.0545,21.0449,12.8052,-60.3180,-0.0000,-0.0000,-0.0000,1.0000,1.4408,0.3060,-1.3796,1.0000
8.4861,2.8479,0.9495,-0.0648,-0.1318,-0.1503,17.7155,13.3636,-61.2427,-0.0000,-0.0000,-0.0000,1.0000,1.4153,0.3252,-1.3957,1.0000
8.2658,2.3682,1.1889,0.2377,-0.0786,0.0989,17.7322,10.2310,-61.3403,-0.0000,-0.0000,-0.0000,1.0000,1.4463,0.3166,-1.4153,1.0000
8.3775,2.4768,0.7927,-0.0169,-0.1659,-0.0619,15.6158,8.3893,-62.8616,-0.0000,-0.0000,-0.0000,1.0000,1.4774,0.3066,-1.4417,1.0000
8.6493,2.5422,1.5102,-0.1788,0.2261,0.0137,16.5451,8.5159,-60.5286,-0.0000,-0.0000,-0.0000,1.0000,1.4735,0.2977,-1.4532,1.0000
7.5316,2.7278,0.9850,0.0417,0.1452,0.1735,13.7695,8.4854,-62.2421,-0.0000,-0.0000,-0.0000,1.0000,1.4433,0.3268,-1.4676,1.0000
0.3055,3.5972,7.4019,-2.9794,-1.2972,-3.2045,-14.2365,49.2004,-34.1904,-0.0000,-0.0000,-0.0000,0.0000,0.2726,0.9374,-0.8654,1.0000
0.3761,5.1818,6.9015,0.1791,0.0961,-0.1024,-42.1326,28.6575,-6.2973,-0.0000,-0.0000,-0.0000,0.0000,-0.9767,0.7945,-0.2070,1.0000
-0.6450,4.9971,7.9525,0.0620,0.0088,-0.1898,-42.9153,27.0325,-10.8749,-0.0000,-0.0000,-0.0000,0.0000,-1.0700,0.7693,-0.0446,1.0000
-0.9515,5.4795,7.4781,-0.1096,0.1079,-0.1013,-43.2159,22.6105,-12.7808,-0.0000,-0.0000,-0.0000,0.0000,-1.1390,0.7868,0.0503,1.0000
-1.4028,5.9659,6.5927,-0.2054,0.0748,-0.1141,-41.2186,24.8093,-14.3997,-0.0000,-0.0000,-0.0000,0.0000,-1.1189,0.8022,0.1153,1.0000
-2.2016,5.9870,7.1764,0.3762,-0.2213,0.1096,-42.5568,25.2487,-14.8514,-0.0000,-0.0000,-0.0000,0.0000,-1.1338,0.7749,0.1439,1.0000
-1.4207,5.8929,6.4191,-0.0936,0.1228,-0.0097,-42.0166,24.7833,-10.6689,-0.0000,-0.0000,-0.0000,0.0000,-1.0869,0.7506,0.0864,1.0000
-1.6945,5.7145,6.4326,0.0630,-0.0413,-0.0641,-41.1789,24.5651,-10.8215,-0.0000,-0.0000,-0.0000,0.0000,-1.0549,0.7322,0.1146,1.0000
-1.4447,5.7353,6.5831,0.2633,0.0152,0.0382,-39.7552,26.1185,-13.8199,-0.0000,-0.0000,-0.0000,0.0000,-1.0475,0.7335,0.1460,1.0000
3.3513,5.7253,3.1737,1.3179,1.7239,0.0041,-37.3566,37.8174,24.2447,-0.0000,-0.0000,-0.0000,0.0000,-1.1058,0.7910,-0.6481,1.0000
2.1055,6.6474,4.5799,-0.3162,0.1952,-0.1855,-45.4102,30.7846,5.5939,-0.0000,-0.0000,-0.0000,0.0000,-1.1098,0.8382,-0.1755,1.0000
0.7652,6.1343,5.8612,0.6255,0.9899,0.2086,-39.7308,35.2493,-11.2274,-0.0000,-0.0000,-0.0000,0.0000,-0.9720,0.8527,-0.0395,1.0000
-1.4926,8.5038,2.6067,-0.2630,-0.4429,-0.0619,-31.4148,28.0182,-27.8198,-0.0000,-0.0000,-0.0000,0.0000,-0.6777,1.2035,0.1950,1.0000
2.6303,6.3330,5.8413,0.3389,-0.3204,0.0116,-27.3865,40.5609,-16.3971,-0.0000,-0.0000,-0.0000,0.0000,-0.4490,0.8770,-0.2803,1.0000
3.0836,7.5995,8.3117,-0.1990,-0.4823,-0.4699,-10.6750,44.9829,-23.1842,-0.0000,-0.0000,-0.0000,0.0000,0.1592,0.9836,-0.4487,1.0000
0.1870,7.8158,2.8533,-0.0062,0.2368,0.3205,-20.1599,35.0800,-25.7706,-0.0000,-0.0000,-0.0000,0.0000,0.1135,1.2784,-0.3990,1.0000
2.8869,6.9020,3.5652,0.2143,-0.0690,-0.1642,4.8111,34.2072,-27.9694,-0.0000,-0.0000,-0.0000,0.0000,0.6547,1.0638,-0.6021,1.0000
3.0604,7.4539,4.3868,-0.2693,0.1164,0.1415,14.8529,28.5065,-27.5772,-0.0000,-0.0000,-0.0000,0.0000,0.9455,1.1306,-0.6374,1.0000
-0.6937,7.6486,-1.2432,0.2058,0.1345,-0.0566,-1.8112,23.1049,-24.1974,-0.0000,-0.0000,-0.0000,0.0000,1.7667,1.5484,-1.4990,1.0000
-0.3908,6.8781,-0.7129,0.0481,-0.6186,0.1639,-5.1483,27.3010,-22.3282,-0.0000,-0.0000,-0.0000,0.0000,-2.7217,1.4660,2.9258,1.0000
0.9360,7.3222,-1.9195,-1.1120,-0.8093,-0.0885,28.1479,9.5993,-31.0165,-0.0000,-0.0000,-0.0000,0.0000,2.4604,1.4663,-1.8497,1.0000
0.4272,8.1371,1.9399,-0.1948,0.1025,0.1479,21.8292,18.0237,-29.8981,-0.0000,-0.0000,-0.0000,0.0000,0.8136,1.3573,-0.3168,1.0000
1.0425,7.4328,3.1031,-0.3247,-0.2778,-0.1940,21.7041,21.6995,-30.1620,-0.0000,-0.0000,-0.0000,0.0000,0.6806,1.2065,-0.2380,1.0000
0.8362,6.6503,4.6936,0.8620,1.3894,-0.3634,22.0444,20.7489,-29.6997,-0.0000,-0.0000,-0.0000,0.0000,0.5040,1.2056,-0.0765,1.0000
-0.1478,6.6558,4.8297,0.0204,-1.1012,-0.1525,31.8130,28.8879,-24.7818,-0.0000,-0.0000,-0.0000,0.0000,0.7987,0.9356,-0.0175,1.0000
-0.3565,7.7727,5.2415,0.1035,-0.2639,0.0574,37.7243,23.8266,-22.3312,-0.0000,-0.0000,-0.0000,0.0000,0.7669,1.1135,0.0998,1.0000
-1.6985,9.2492,2.5313,0.4380,-0.7145,0.0499,31.9031,15.1962,-30.2429,-0.0000,-0.0000,-0.0000,0.0000,0.6396,1.2752,0.1065,1.0000
1.2548,7.2807,3.7627,-0.1064,0.0077,-0.0683,18.6905,19.0369,-34.8526,-0.0000,-0.0000,-0.0000,0.0000,0.5395,1.1275,-0.1609,1.0000
-1.2791,8.2727,3.8178,-0.0329,0.4243,0.2342,19.7601,24.7009,-35.9772,-0.0000,-0.0000,-0.0000,0.0000,0.4563,1.0580,-0.0992,1.0000
-0.1259,8.0485,2.9694,0.1173,-0.0764,-0.0044,19.5847,22.3099,-38.3865,-0.0000,-0.0000,-0.0000,0.0000,0.4901,1.0933,-0.0850,1.0000
0.0888,7.3661,3.8237,0.1014,-0.0296,0.0627,20.7428,21.4661,-37.2513,-0.0000,-0.0000,-0.0000,0.0000,0.5109,1.1048,-0.0776,1.0000
-0.2412,7.9092,3.9574,0.0460,0.0674,0.0510,20.6543,21.1502,-36.7905,-0.0000,-0.0000,-0.0000,0.0000,0.5219,1.0986,-0.0795,1.0000
0.2668,7.6770,3.3501,0.1365,0.0131,0.1895,23.0881,22.0276,-35.2707,-0.0000,-0.0000,-0.0000,0.0000,0.5888,1.1162,-0.1131,1.0000
0.5314,4.1483,6.6333,1.3264,-0.0700,1.0928,16.3651,40.0650,-23.8739,-0.0000,-0.0000,-0.0000,0.0000,0.4890,0.5156,-0.0071,1.0000
1.7289,5.7377,6.2291,0.1866,-0.0754,-0.1365,13.6581,36.0565,-27.9068,-0.0000,-0.0000,-0.0000,0.0000,0.4974,0.6969,-0.3264,1.0000
2.7588,4.4699,8.1948,-0.2555,0.9164,-0.0630,17.2958,34.4070,-28.1189,-0.0000,-0.0000,-0.0000,0.0000,0.5326,0.5304,-0.4266,1.0000
1.8809,3.7744,8.0092,0.2143,0.2101,-0.0087,18.1641,41.8594,-22.9126,-0.0000,-0.0000,-0.0000,0.0000,0.4710,0.4810,-0.1783,1.0000
-1.7751,2.7924,8.4302,0.0044,1.2466,1.1301,26.3519,40.4053,-14.4348,-0.0000,-0.0000,-0.0000,0.0000,0.3105,0.3927,0.1890,1.0000
-3.3069,6.3965,6.8045,0.1653,-0.3587,0.0414,21.7361,31.5567,-20.7733,-0.0000,-0.0000,-0.0000,0.0000,0.1275,0.7982,0.5090,1.0000
-1.1151,6.5908,5.6266,-0.2704,0.0003,-0.3304,17.9672,38.0646,-24.7589,-0.0000,-0.0000,-0.0000,0.0000,0.1193,0.7192,0.2882,1.0000
-1.8812,5.0346,7.0858,0.8300,0.2144,-0.4348,10.0815,36.3113,-27.5955,-0.0000,-0.0000,-0.0000,0.0000,-0.2052,0.7710,0.4318,1.0000
-7.5966,5.4013,-0.4407,0.5126,-0.1691,-0.1972,-10.6583,-18.3533,-36.9339,-0.0000,-0.0000,-0.0000,0.0000,-1.9900,0.7817,1.5965,1.0000
-4.6573,8.2520,4.8568,-1.1248,-0.4375,-0.2302,-23.0804,14.9872,-37.0773,-0.0000,-0.0000,-0.0000,0.0000,-1.3867,0.8046,0.7056,1.0000
0.1072,5.8749,6.2603,0.0406,0.3220,0.2481,-27.0630,37.3138,-21.6309,-0.0000,-0.0000,-0.0000,0.0000,-0.6606,0.8069,-0.1373,1.0000
-1.4514,5.7700,7.5300,0.1056,0.3316,-0.0715,-32.5211,27.8168,-17.6605,-0.0000,-0.0000,-0.0000,0.0000,-0.9351,0.6753,-0.0091,1.0000
-0.6183,4.2102,9.0742,0.3570,-0.2554,0.3024,-38.5208,32.3944,-9.7443,-0.0000,-0.0000,-0.0000,0.0000,-0.9077,0.5195,-0.1243,1.0000
-0.8006,3.4109,10.7382,2.7752,0.6288,0.7828,-43.0908,27.4002,0.5432,-0.0000,-0.0000,-0.0000,0.0000,-1.0285,0.3260,-0.0904,1.0000
1.0864,5.4228,6.2658,-0.0062,-0.1403,0.0989,-44.9554,29.3579,-3.5217,-0.0000,-0.0000,-0.0000,0.0000,-0.9738,0.6882,-0.1359,1.0000
0.5792,6.0302,5.0464,-0.3397,-0.1105,-0.2569,-46.6797,27.5894,-2.2766,-0.0000,-0.0000,-0.0000,0.0000,-1.0316,0.7317,-0.1035,1.0000
1.3298,6.2576,6.5854,-0.4078,1.9827,0.7093,-46.8643,24.0585,2.1729,-0.0000,-0.0000,-0.0000,0.0000,-1.1394,0.7821,-0.3163,1.0000
0.8370,6.1806,6.2567,0.0364,-0.0072,-0.0672,-45.0699,24.2126,0.1984,-0.0000,-0.0000,-0.0000,0.0000,-1.1117,0.7465,-0.1537,1.0000
1.1048,6.3214,6.0444,0.1482,0.5904,0.1660,-46.8536,22.5586,4.2389,-0.0000,-0.0000,-0.0000,0.0000,-1.1716,0.7739,-0.2063,1.0000
1.0046,5.8306,7.6589,-0.0446,0.1015,-0.0332,-42.6498,22.5067,0.3067,-0.0000,-0.0000,-0.0000,0.0000,-1.1220,0.6863,-0.1466,1.0000
0.4623,3.2441,5.5472,-1.0427,-1.6754,0.0425,-46.4569,22.8104,-2.1912,-0.0000,-0.0000,-0.0000,0.0000,-1.1228,0.7024,-0.1100,1.0000
2.0553,5.0549,6.4925,0.3751,-0.0658,-0.1940,-44.4443,25.1221,9.0729,-0.0000,-0.0000,-0.0000,0.0000,-1.1027,0.5944,-0.3941,1.0000
-1.0716,3.7469,8.5435,0.0705,-0.0722,-0.1578,-44.6884,22.6944,-5.6122,-0.0000,-0.0000,-0.0000,0.0000,-1.0880,0.4479,-0.0087,1.0000
0.0717,2.8139,9.0487,-0.3205,-0.3193,-0.5892,-41.0995,27.4155,-3.3722,-0.0000,-0.0000,-0.0000,0.0000,-0.9996,0.3633,-0.0604,1.0000
1.0441,4.8275,7.2291,-0.0243,-0.8477,-0.2675,-44.2520,24.8276,-1.8021,-0.0000,-0.0000,-0.0000,0.0000,-1.0277,0.6050,-0.0183,1.0000
0.3215,5.0864,5.1549,-1.0172,-0.8147,0.3684,-44.3924,26.8463,-1.6235,-0.0000,-0.0000,-0.0000,0.0000,-1.0855,0.6971,-0.0654,1.0000
-0.2703,7.1000,3.0049,0.0673,0.4093,0.1479,-34.0652,30.7343,-25.6119,-0.0000,-0.0000,-0.0000,0.0000,-0.9263,0.8576,0.2711,1.0000
-0.9135,7.7065,3.0109,0.0151,-0.4844,-0.2313,-37.8098,22.9843,-17.5644,-0.0000,-0.0000,-0.0000,0.0000,-0.8450,1.1038,0.0512,1.0000
1.3829,6.9076,4.9722,-0.1990,-0.3342,0.0499,-39.5111,26.7639,-9.8297,-0.0000,-0.0000,-0.0000,0.0000,-0.8758,0.9923,-0.1243,1.0000
0.6016,7.8521,3.3421,0.1536,0.1196,-0.1397,-36.7203,26.1017,-10.4584,-0.0000,-0.0000,-0.0000,0.0000,-0.7947,0.9900,-0.2301,1.0000
0.8797,6.8809,4.3166,-0.0797,-0.0221,0.2939,-37.0331,24.5743,-11.1862,-0.0000,-0.0000,-0.0000,0.0000,-0.8050,0.9475,-0.2342,1.0000
1.2915,6.7145,4.8668,-0.0872,-0.0466,-0.0449,-33.9874,27.3315,-14.6042,-0.0000,-0.0000,-0.0000,0.0000,-0.7466,0.9427,-0.1522,1.0000
0.8011,6.9399,5.6366,0.3709,-0.3140,0.4249,-29.8706,34.2941,-16.8900,-0.0000,-0.0000,-0.0000,0.0000,-0.5198,0.9741,-0.3460,1.0000
1.6806,7.3190,4.7156,0.0811,0.1856,-0.0342,-30.3375,37.9227,-20.7336,-0.0000,-0.0000,-0.0000,0.0000,-0.3356,1.0480,-0.4300,1.0000
1.8442,7.2588,3.4191,0.0279,0.1739,-0.0811,-28.5919,34.6130,-25.1678,-0.0000,-0.0000,-0.0000,0.0000,-0.3286,1.0627,-0.3333,1.0000
0.7476,6.9543,5.3501,-0.2459,-0.1691,-0.1269,-29.6005,33.2077,-26.0483,-0.0000,-0.0000,-0.0000,0.0000,-0.5458,0.9808,-0.0382,1.0000
-0.0413,5.8482,6.8792,-0.2566,0.3987,0.2065,-24.8596,36.0809,-22.3114,-0.0000,-0.0000,-0.0000,0.0000,-0.5202,0.7785,-0.0074,1.0000
0.7855,4.6730,6.9586,0.5190,-0.1361,-0.1227,-23.4970,41.3986,-20.0623,-0.0000,-0.0000,-0.0000,0.0000,-0.4333,0.6788,-0.0421,1.0000
0.2692,6.5182,5.3245,-0.3109,0.1334,-0.0300,-26.7487,39.7919,-25.6775,-0.0000,-0.0000,-0.0000,0.0000,-0.5247,0.8301,0.0073,1.0000
-0.9499,6.4819,5.8034,0.0140,-0.0040,0.0361,-25.3281,37.6144,-25.4532,-0.0000,-0.0000,-0.0000,0.0000,-0.5210,0.7921,0.0012,1.0000
0.2385,6.0429,6.7734,-0.1170,0.0855,-0.0513,-23.4573,39.3250,-24.5636,-0.0000,-0.0000,-0.0000,0.0000,-0.4558,0.7670,-0.0183,1.0000
0.0665,6.2261,6.1912,0.0364,0.0269,0.0020,-20.5704,40.4785,-25.7156,-0.0000,-0.0000,-0.0000,0.0000,-0.3626,0.7816,-0.0291,1.0000
0.3893,6.4643,5.7395,0.0811,0.0354,0.0542,-17.2714,39.8499,-28.1845,-0.0000,-0.0000,-0.0000,0.0000,-0.2775,0.8021,-0.0383,1.0000
0.0693,6.2891,5.2319,0.2516,0.1888,0.1692,-12.7182,38.8000,-28.3401,-0.0000,-0.0000,-0.0000,0.0000,-0.1910,0.8392,-0.0597,1.0000
0.5138,6.4192,5.9330,0.0694,0.0621,0.2278,-6.0883,39.4684,-31.6986,-0.0000,-0.0000,-0.0000,0.0000,-0.0391,0.8802,-0.0754,1.0000
0.3526,6.6343,4.9051,0.0481,0.1164,0.1437,-0.5127,38.0524,-31.9138,-0.0000,-0.0000,-0.0000,0.0000,0.1114,0.9016,-0.0862,1.0000
-0.0752,6.5305,5.2148,0.3059,0.0983,-0.0832,4.8279,35.3256,-32.6248,-0.0000,-0.0000,-0.0000,0.0000,0.2248,0.9457,-0.0519,1.0000
0.3801,6.7097,5.0719,0.0247,0.0493,-0.0182,5.7510,28.6682,-27.9129,-0.0000,-0.0000,-0.0000,0.0000,0.2247,0.9339,-0.0191,1.0000
0.6834,6.7815,6.4127,0.0960,-0.0370,0.0798,10.3928,32.9865,-29.5670,-0.0000,-0.0000,-0.0000,0.0000,0.2982,0.9357,-0.0166,1.0000
-0.0317,6.7392,4.6478,0.1280,0.1175,0.0414,13.8657,33.0612,-27.1072,-0.0000,-0.0000,-0.0000,0.0000,0.2755,0.9487,-0.0098,1.0000
0.8478,6.6331,5.1952,-0.0424,-0.0327,-0.1216,8.9966,32.9361,-30.7022,-0.0000,-0.0000,-0.0000,0.0000,0.2972,0.9271,-0.0425,1.0000
0.7608,6.9451,5.2874,-0.1543,-0.0285,-0.1599,8.8455,34.4971,-30.3864,-0.0000,-0.0000,-0.0000,0.0000,0.2615,0.8989,-0.0493,1.0000
1.1518,6.4675,5.7459,0.0577,0.7065,0.3610,18.1656,29.4830,-28.9154,-0.0000,-0.0000,-0.0000,0.0000,0.2608,0.9336,-0.0229,1.0000
0.2863,6.9503,5.6250,0.1280,-0.0594,-0.0150,10.5103,28.9597,-33.4457,-0.0000,-0.0000,-0.0000,0.0000,0.2271,1.0033,0.0036,1.0000
0.4292,7.0058,4.6282,0.0460,-0.0178,0.0233,5.1483,32.0358,-35.6339,-0.0000,-0.0000,-0.0000,0.0000,0.1519,0.9536,-0.0343,1.0000
-0.3757,7.3921,5.0603,-0.1085,-0.0370,0.0382,5.2017,31.5369,-34.3475,-0.0000,-0.0000,-0.0000,0.0000,0.1214,0.9532,-0.0423,1.0000
0.7209,7.2360,4.8317,-0.0414,-0.0540,-0.0353,2.6413,32.1503,-35.0479,-0.0000,-0.0000,-0.0000,0.0000,0.1222,0.9607,-0.0821,1.0000
0.3538,6.9324,3.7974,0.3059,0.0088,-0.0609,-0.4272,32.4707,-35.8749,-0.0000,-0.0000,-0.0000,0.0000,0.0819,0.9938,-0.1357,1.0000
1.0266,6.7843,4.7076,-0.1682,-0.2650,-0.2100,-6.1142,35.3104,-33.9798,-0.0000,-0.0000,-0.0000,0.0000,-0.0036,0.9597,-0.1638,1.0000
0.9839,6.3685,4.7371,-0.1639,-0.1084,0.1234,-5.9143,36.5005,-33.6349,-0.0000,-0.0000,-0.0000,0.0000,-0.0448,0.8963,-0.1822,1.0000
3.2240,6.1874,6.2774,-0.1245,0.1175,-0.2718,-4.1046,41.2674,-27.7802,-0.0000,-0.0000,-0.0000,0.0000,0.0844,0.7859,-0.4073,1.0000
1.4348,5.9655,5.1366,0.0620,0.0237,0.0883,-6.4178,42.3340,-29.5914,-0.0000,-0.0000,-0.0000,0.0000,0.0049,0.8159,-0.3290,1.0000
1.6698,6.0609,5.8065,0.1280,0.0077,-0.0896,-5.7892,40.6143,-29.1183,-0.0000,-0.0000,-0.0000,0.0000,0.0108,0.7920,-0.3040,1.0000
1.3837,5.9811,6.3788,0.0406,-0.0722,0.0212,-6.8741,41.2964,-27.6672,-0.0000,-0.0000,-0.0000,0.0000,0.0007,0.7656,-0.2818,1.0000
4.8098,4.3327,7.3779,0.8470,2.2735,-0.0513,-17.9245,45.5124,-14.5966,-0.0000,-0.0000,-0.0000,0.0000,-0.1573,0.5433,-0.6199,1.0000
6.6178,3.6743,4.9522,0.0971,0.3966,0.0595,-14.2776,48.5474,-5.6503,-0.0000,-0.0000,-0.0000,0.0000,-0.0992,0.4975,-0.8547,1.0000
2.7655,5.3478,6.1349,0.3805,0.7012,0.1607,-9.6436,47.0734,-17.4774,-0.0000,-0.0000,-0.0000,0.0000,-0.0271,0.5731,-0.5297,1.0000
-0.3968,4.4564,8.2498,1.6077,0.2836,0.4292,-5.3360,41.7282,-16.3925,-0.0000,-0.0000,-0.0000,0.0000,-0.4402,0.3025,-0.0211,0.0000
-1.2499,-5.6707,9.4565,0.7959,0.1164,0.0829,-24.5880,-1.5961,92.4286,-0.0000,-0.0000,-0.0000,0.0000,-0.5667,-0.4754,-0.0435,0.0000
1.0900,6.1231,5.9558,2.3682,3.7202,1.1408,-3.6896,27.6749,-33.7082,-0.0000,-0.0000,-0.0000,0.0000,-0.2933,0.7848,-0.2475,0.0000
-1.1637,7.1638,4.9175,0.2388,-0.3182,-0.5551,24.0021,25.4562,-27.5009,-0.0000,-0.0000,-0.0000,0.0000,0.3526,0.9869,0.1507,0.0000
0.7101,7.3490,4.8349,-0.0424,-0.2565,-0.2292,7.5790,29.5105,-33.0399,-0.0000,-0.0000,-0.0000,0.0000,0.3219,0.9398,-0.1462,0.0000
0.7692,6.8881,5.3185,0.1184,-0.0370,-0.2089,6.0013,30.3162,-37.7274,-0.0000,-0.0000,-0.0000,0.0000,0.2592,0.9370,-0.1899,0.0000
-0.1538,7.7057,1.0596,0.1589,-0.1435,0.0819,-7.8003,18.1015,-47.0032,-0.0000,-0.0000,-0.0000,0.0000,-0.1645,1.2551,0.0743,0.0000
-1.0093,8.2520,1.7807,0.1834,0.0631,-0.1812,-6.5277,18.9240,-43.3670,-0.0000,-0.0000,-0.0000,0.0000,-0.1782,1.2841,0.0891,0.0000
-0.6570,8.1358,1.3334,-0.0307,-0.0796,0.0190,-4.7043,18.5471,-44.7876,-0.0000,-0.0000,-0.0000,0.0000,-0.2157,1.3151,0.1365,0.0000
0.5102,8.0086,2.4914,-0.1213,-0.0242,-0.0172,-4.2465,21.9986,-42.8665,-0.0000,-0.0000,-0.0000,0.0000,-0.2247,1.3102,0.1320,0.0000
-0.2476,8.2687,1.3489,0.0534,0.0024,-0.0172,-7.0755,19.7083,-47.6486,-0.0000,-0.0000,-0.0000,0.0000,-0.1849,1.2965,0.0817,0.0000
0.2197,7.8557,2.8677,0.0833,-0.0487,0.1692,-4.4388,22.2290,-46.9772,-0.0000,-0.0000,-0.0000,0.0000,-0.1973,1.3021,0.0889,0.0000
-0.1618,8.4383,1.5189,0.1323,0.1388,0.0361,-8.0994,20.5704,-47.1008,-0.0000,-0.0000,-0.0000,0.0000,0.0187,1.3248,-0.1484,0.0000
0.0338,7.9072,-1.0728,1.6599,2.0999,-0.5764,-3.5019,11.9537,-49.1562,-0.0000,-0.0000,-0.0000,0.0000,0.0971,1.5097,-0.1156,0.0000
-0.8613,8.2671,-2.3645,-0.1085,-0.1936,-0.0055,36.3953,0.3326,-32.9239,-0.0000,-0.0000,-0.0000,0.0000,-1.9760,1.3466,2.7986,0.0000
0.6211,7.8765,0.1858,-0.2672,-0.0690,0.1895,30.8823,3.9429,-34.0851,-0.0000,-0.0000,-0.0000,0.0000,-3.1109,1.5134,-2.3854,0.0000
1.5397,8.9846,2.5740,0.1355,-0.0210,-0.1983,22.3984,13.3560,-38.1927,-0.0000,-0.0000,-0.0000,0.0000,0.9260,1.3900,-0.3327,0.0000
0.3091,8.0034,0.7388,-0.2204,-0.1201,0.0329,20.2347,11.8484,-38.2172,-0.0000,-0.0000,-0.0000,0.0000,0.5328,1.3959,-0.0175,0.0000
-0.3042,9.0472,2.7918,0.3570,0.2773,-0.1109,20.7397,17.1341,-38.6826,-0.0000,-0.0000,-0.0000,0.0000,0.3218,1.2747,0.1275,0.0000
-0.1957,7.9707,3.0740,0.2750,0.1196,-0.1471,21.0541,17.2653,-38.5818,-0.0000,-0.0000,-0.0000,0.0000,0.3550,1.2356,0.0752,0.0000
0.0310,7.9355,2.4283,0.1163,0.0269,0.0936,20.7443,18.7195,-40.0543,-0.0000,-0.0000,-0.0000,0.0000,0.3338,1.2319,0.1029,0.0000
-0.2619,7.7500,3.6977,0.2249,0.0685,-0.0438,21.7392,17.9367,-39.3295,-0.0000,-0.0000,-0.0000,0.0000,0.3673,1.2333,0.0780,0.0000
-0.3752,8.1215,2.3952,0.0087,-0.0114,0.0957,20.0073,17.8772,-40.5640,-0.0000,-0.0000,-0.0000,0.0000,0.3746,1.2293,0.0723,0.0000
-0.4618,7.9347,3.6466,0.0311,-0.0104,0.0744,19.0384,18.0389,-41.3727,-0.0000,-0.0000,-0.0000,0.0000,0.3703,1.2237,0.0678,0.0000
-0.3074,7.7272,3.1657,-0.0861,-0.0530,0.0585,20.4163,17.7948,-40.8264,-0.0000,-0.0000,-0.0000,0.0000,0.3877,1.2001,0.0498,0.0000
0.1387,8.0624,3.9331,0.0076,-0.0871,-0.0193,21.0785,17.4057,-40.8798,-0.0000,-0.0000,-0.0000,0.0000,0.3496,1.2088,0.1132,0.0000
0.4376,7.7376,2.8984,-0.2640,-0.0658,0.1628,23.6771,16.1575,-37.3642,-0.0000,-0.0000,-0.0000,0.0000,0.5036,1.2228,0.0396,0.0000
0.6658,7.5944,4.5440,0.3048,-0.0722,-0.0662,17.3370,21.2173,-42.1539,-0.0000,-0.0000,-0.0000,0.0000,0.2958,1.1167,0.0380,0.0000
2.2113,7.1514,3.8892,0.1482,-0.2000,-0.0694,15.7028,19.4611,-35.6293,-0.0000,-0.0000,-0.0000,0.0000,0.6388,1.1864,-0.2559,0.0000
0.8849,7.9842,5.0719,-0.2566,-0.0040,0.1341,11.8729,26.7807,-38.0722,-0.0000,-0.0000,-0.0000,0.0000,0.3789,1.0421,-0.2182,0.0000
0.5597,7.2265,4.2858,0.3932,-0.1148,-0.4145,-0.3937,25.4745,-38.0875,-0.0000,-0.0000,-0.0000,0.0000,0.2192,1.1437,-0.1948,0.0000
0.5844,9.1638,2.8936,0.4795,-0.4407,-0.0300,-23.1689,15.9851,-33.6945,-0.0000,-0.0000,-0.0000,0.0000,-0.5456,1.4319,0.2305,0.0000
-3.7239,9.3816,2.7579,-0.7487,-1.1129,0.1948,-40.6448,2.8610,-20.7962,-0.0000,-0.0000,-0.0000,0.0000,-2.0454,1.3974,1.1560,0.0000
-0.6562,8.1107,1.0217,-0.2821,0.2218,0.3674,-41.0080,24.0631,-15.5563,-0.0000,-0.0000,-0.0000,0.0000,-0.9423,1.3415,-0.2301,0.0000
-0.1326,7.7576,3.6043,-0.2960,-0.1137,0.4388,-39.6545,23.2635,-11.2854,-0.0000,-0.0000,-0.0000,0.0000,-0.8994,1.1776,-0.3232,0.0000
1.2448,7.3290,4.4774,0.3485,0.2719,-0.0076,-35.3073,27.8030,-15.2008,-0.0000,-0.0000,-0.0000,0.0000,-0.8617,0.9579,-0.4102,0.0000
2.7719,5.6163,4.0153,-0.5527,-0.2628,-0.5093,-31.0104,28.5873,-22.2305,-0.0000,-0.0000,-0.0000,0.0000,-0.8153,0.9960,-0.2820,0.0000
1.3573,7.3645,3.4291,-0.2693,-0.0839,0.1053,-39.5035,23.1567,-17.6590,-0.0000,-0.0000,-0.0000,0.0000,-0.9064,1.0299,-0.3069,0.0000
0.3183,7.9998,3.3968,0.0950,0.0290,0.0787,-42.5247,22.0291,-18.4860,-0.0000,-0.0000,-0.0000,0.0000,-0.9085,1.0854,-0.2692,0.0000
-0.0129,8.1319,2.7356,0.1376,0.0067,0.0148,-43.5669,24.8734,-17.5003,-0.0000,-0.0000,-0.0000,0.0000,-0.8668,1.1092,-0.2988,0.0000
0.0441,8.1247,3.5293,-0.0137,0.0471,-0.0630,-44.0170,25.6775,-18.1381,-0.0000,-0.0000,-0.0000,0.0000,-0.7926,1.1024,-0.3034,0.0000
1.1882,7.7177,3.3752,-0.0371,-0.1542,-0.2420,-43.0893,24.7635,-16.7740,-0.0000,-0.0000,-0.0000,0.0000,-0.7124,1.1223,-0.3657,0.0000
3.2592,7.5764,1.9627,-0.1628,0.0099,0.0094,-38.9420,34.1156,-22.6379,-0.0000,-0.0000,-0.0000,0.0000,-0.1748,1.1595,-0.7999,0.0000
3.2340,7.1195,3.2603,0.3773,0.1164,-0.0033,-29.8645,39.6774,-23.6725,-0.0000,-0.0000,-0.0000,0.0000,-0.0601,1.0264,-0.8462,0.0000
1.9280,7.7025,4.7228,0.2377,-0.0338,-0.1653,-34.3781,36.2045,-18.7790,-0.0000,-0.0000,-0.0000,0.0000,-0.3268,1.0213,-0.6858,0.0000
2.6107,7.0772,2.9455,-0.0062,0.1920,0.0915,-35.4202,35.7788,-19.3527,-0.0000,-0.0000,-0.0000,0.0000,-0.3143,1.0436,-0.6982,0.0000
2.3334,8.4196,8.1261,-0.9149,-1.5167,-1.6215,-49.4659,22.5723,-7.0908,-0.0000,-0.0000,-0.0000,0.0000,-1.0104,0.9385,-0.2925,0.0000
1.4611,6.7408,4.0600,-0.0073,1.1113,0.5815,-44.8456,31.8680,-10.8765,-0.0000,-0.0000,-0.0000,0.0000,-0.8454,1.0227,-0.3457,0.0000
2.6231,7.1371,2.3685,-0.8861,-0.4397,-0.2079,-25.1572,24.4995,-28.5934,-0.0000,-0.0000,-0.0000,0.0000,-0.4000,1.1433,-0.2064,0.0000
1.8314,5.8737,5.8752,-0.1096,0.0493,0.0702,-32.1320,28.6621,-20.3506,-0.0000,-0.0000,-0.0000,0.0000,-0.5013,0.9437,-0.2607,0.0000
0.9799,6.6363,5.8564,0.0896,-0.4940,0.0009,-27.8015,26.7365,-24.1028,-0.0000,-0.0000,-0.0000,0.0000,-0.5536,0.9693,-0.1187,0.0000
1.2009,5.9575,6.2020,-0.1032,0.0759,0.0318,-28.2928,29.6005,-20.8618,-0.0000,-0.0000,-0.0000,0.0000,-0.5339,0.8852,-0.2290,0.0000
-0.0987,6.9124,4.5664,-0.2939,-0.1872,0.1842,-27.7878,30.5588,-23.7839,-0.0000,-0.0000,-0.0000,0.0000,-0.4799,0.8956,-0.2081,0.0000
0.9296,6.2005,6.0544,0.1600,0.0397,0.0340,-28.0121,29.3884,-22.7768,-0.0000,-0.0000,-0.0000,0.0000,-0.4961,0.8789,-0.1987,0.0000
1.5014,6.6327,4.2515,-0.1554,-0.0828,0.1021,-26.8936,29.9347,-24.5255,-0.0000,-0.0000,-0.0000,0.0000,-0.4422,0.8799,-0.2289,0.0000
1.1327,6.4260,5.3093,-0.0254,0.0780,0.1639,-26.5259,31.7047,-25.0626,-0.0000,-0.0000,-0.0000,0.0000,-0.4411,0.8942,-0.2371,0.0000
1.4020,6.6028,5.6872,0.0801,0.0844,-0.0076,-24.9527,31.8710,-22.2656,-0.0000,-0.0000,-0.0000,0.0000,-0.4581,0.8852,-0.2482,0.0000
2.2915,6.0453,5.9749,0.1791,-0.1489,-0.1109,-29.2877,28.7170,-19.6762,-0.0000,-0.0000,-0.0000,0.0000,-0.5427,0.8707,-0.2479,0.0000
1.7708,6.4563,5.5504,-0.1245,-0.1861,0.2140,-33.8669,23.3505,-16.1682,-0.0000,-0.0000,-0.0000,0.0000,-0.7422,0.8906,-0.2169,0.0000
1.7420,6.3861,5.3644,0.0151,-0.1797,-0.0193,-36.0458,22.6212,-10.9161,-0.0000,-0.0000,-0.0000,0.0000,-0.8471,0.8693,-0.2671,0.0000
1.6123,6.9555,4.6234,-0.1074,-0.0636,-0.0257,-39.5660,20.4193,-6.9214,-0.0000,-0.0000,-0.0000,0.0000,-0.9547,0.8917,-0.3235,0.0000
1.6099,6.3514,4.6853,-0.1426,-0.1350,-0.0736,-38.6673,19.6289,-3.6041,-0.0000,-0.0000,-0.0000,0.0000,-1.0035,0.8745,-0.3126,0.0000
0.0182,5.8123,4.4622,-0.7999,0.1228,-0.5211,-40.8691,9.8389,2.6947,-0.0000,-0.0000,-0.0000,0.0000,-1.3639,0.7184,-0.2077,0.0000
0.9962,3.9488,7.5631,0.1205,-0.5270,-0.2206,-42.2882,13.5071,6.6772,-0.0000,-0.0000,-0.0000,0.0000,-1.3456,0.5353,-0.1849,0.0000
-1.9594,5.3075,6.6848,-0.4792,-0.0828,0.3471,-39.2075,3.7933,10.0540,-0.0000,-0.0000,-0.0000,0.0000,-1.5644,0.5291,-0.1530,1.0000
-0.2037,4.8678,7.1313,0.3325,0.3721,0.2800,-42.9077,7.1381,9.0042,-0.0000,-0.0000,-0.0000,0.0000,-1.5469,0.5674,-0.0750,1.0000
-0.1398,5.2712,6.5224,0.0492,-0.0274,-0.0332,-42.7505,6.7108,10.0037,-0.0000,-0.0000,-0.0000,0.0000,-1.5595,0.6721,-0.0790,1.0000
0.6854,5.6774,6.8253,-0.1554,0.1590,0.1852,-40.6982,5.4855,10.9421,-0.0000,-0.0000,-0.0000,0.0000,-1.5633,0.6476,-0.0720,1.0000
-0.2097,6.7971,6.5300,0.2324,0.1718,-0.1237,-40.5609,6.3889,6.0562,-0.0000,-0.0000,-0.0000,0.0000,-1.5295,0.9237,-0.0261,1.0000
1.0162,6.4539,5.2666,-0.2395,-0.0530,-0.2388,-44.1956,12.7747,12.5427,-0.0000,-0.0000,-0.0000,0.0000,-1.5502,0.8963,-0.1102,1.0000
-0.0457,6.9100,5.2659,-0.0893,0.0993,-0.0545,-39.7278,5.3650,7.9239,-0.0000,-0.0000,-0.0000,0.0000,-1.6016,0.9041,-0.0860,1.0000
0.8258,6.8533,5.0939,0.0108,-0.1084,-0.0385,-38.6078,6.6544,9.4574,-0.0000,-0.0000,-0.0000,0.0000,-1.5264,0.9247,-0.1320,1.0000
0.7528,6.9543,4.9307,0.1568,-0.1126,-0.1205,-40.6219,6.5659,9.7061,-0.0000,-0.0000,-0.0000,0.0000,-1.5115,0.9396,-0.1384,1.0000
0.1539,7.2959,3.4946,-0.1639,0.0131,0.2193,-40.1932,9.7641,8.1985,-0.0000,-0.0000,-0.0000,0.0000,-1.5209,0.9786,-0.1287,1.0000
1.3969,6.7352,5.2567,0.0630,0.1398,-0.0555,-40.0620,12.7884,9.9289,-0.0000,-0.0000,-0.0000,0.0000,-1.4499,0.9484,-0.1876,1.0000
1.5808,7.3777,4.6976,-0.0808,-0.0114,0.1522,-39.2746,12.3245,10.0296,-0.0000,-0.0000,-0.0000,0.0000,-1.4394,0.9313,-0.2310,1.0000
2.1339,5.9515,5.0460,-0.1351,0.0035,-0.1482,-37.5885,10.2570,10.5347,-0.0000,-0.0000,-0.0000,0.0000,-1.4320,0.9150,-0.2515,1.0000
1.5385,6.7464,6.1733,0.2281,-0.0232,-0.0044,-38.5727,6.7444,9.4147,-0.0000,-0.0000,-0.0000,0.0000,-1.4823,0.9090,-0.2180,1.0000
0.9990,6.6714,4.9199,-0.0169,-0.0551,-0.0161,-39.2502,6.6696,11.5524,-0.0000,-0.0000,-0.0000,0.0000,-1.4640,0.9130,-0.2426,1.0000
1.6075,6.7775,4.7974,-0.0606,0.0429,0.0254,-39.9750,5.8182,11.5051,-0.0000,-0.0000,-0.0000,0.0000,-1.5135,0.9070,-0.2044,1.0000
1.4607,6.7676,5.5133,-0.1479,-0.0945,0.0616,-41.8381,11.9003,13.1134,-0.0000,-0.0000,-0.0000,0.0000,-1.5115,0.9110,-0.2090,1.0000
0.5772,7.1790,4.8121,-0.0542,-0.1957,0.2672,-40.5121,7.2037,11.7401,-0.0000,-0.0000,-0.0000,0.0000,-1.4649,0.8993,-0.2340,1.0000
0.7807,6.6223,5.6864,0.0747,-0.0594,-0.1056,-38.7772,7.3746,15.0970,-0.0000,-0.0000,-0.0000,0.0000,-1.4564,0.9258,-0.2616,1.0000
1.9731,5.9543,4.9634,-0.0520,-0.1393,-0.2377,-40.2679,7.5668,14.2151,-0.0000,-0.0000,-0.0000,0.0000,-1.5274,0.9248,-0.2596,1.0000
1.8677,6.2456,5.3552,-0.0488,-0.1414,-0.1695,-37.5427,7.9407,12.5137,-0.0000,-0.0000,-0.0000,0.0000,-1.4816,0.8964,-0.2955,1.0000
1.5692,6.5505,4.4618,-0.0030,-0.0370,0.1597,-40.5960,5.4871,13.0539,-0.0000,-0.0000,-0.0000,0.0000,-1.4621,0.8863,-0.3112,1.0000
2.5752,5.9890,5.7702,0.1791,-0.1020,-0.5008,-38.5391,9.2712,9.4589,-0.0000,-0.0000,-0.0000,0.0000,-1.3674,0.8908,-0.3131,1.0000
1.6514,6.7919,4.0951,-0.1234,-0.0679,-0.2175,-39.8712,10.8002,9.4772,-0.0000,-0.0000,-0.0000,0.0000,-1.3487,0.9006,-0.2979,1.0000
1.9324,6.7065,4.6338,-0.1564,-0.0200,-0.3325,-38.8245,10.8871,9.0607,-0.0000,-0.0000,-0.0000,0.0000,-1.3395,0.9265,-0.2785,1.0000
1.9276,6.5453,4.5656,-0.1682,-0.0530,0.0734,-38.3636,8.3694,9.8694,-0.0000,-0.0000,-0.0000,0.0000,-1.4295,0.9047,-0.2451,1.0000
1.4320,6.5672,5.5336,0.0151,-0.0168,-0.1077,-39.0732,8.4396,10.8414,-0.0000,-0.0000,-0.0000,0.0000,-1.4570,0.8929,-0.2559,1.0000
0.7704,7.1203,5.5304,0.1738,0.1537,0.1107,-39.3829,12.5366,11.6806,-0.0000,-0.0000,-0.0000,0.0000,-1.4671,0.8962,-0.2469,1.0000
1.6163,5.9396,4.5767,-0.1085,0.0844,-0.1770,-38.7161,8.2947,10.2280,-0.0000,-0.0000,-0.0000,0.0000,-1.4498,0.8831,-0.2519,1.0000
2.7671,6.2987,4.7886,-0.2843,0.0898,-0.1546,-38.5727,8.2458,11.1465,-0.0000,-0.0000,-0.0000,0.0000,-1.4407,0.8881,-0.2783,1.0000
0.6982,6.8051,5.3493,0.0460,0.0589,0.0606,-38.0829,7.0419,8.8684,-0.0000,-0.0000,-0.0000,0.0000,-1.5030,0.8739,-0.2037,1.0000
0.8119,5.9132,5.1872,-0.0350,0.0258,-0.0332,-39.1113,7.2037,11.1801,-0.0000,-0.0000,-0.0000,0.0000,-1.5021,0.8655,-0.1845,1.0000
0.4651,6.6387,5.8109,0.0705,-0.0913,0.1309,-42.0395,9.5978,11.3235,-0.0000,-0.0000,-0.0000,0.0000,-1.5082,0.8568,-0.1786,1.0000
0.5226,6.5289,4.1019,-0.1096,-0.1403,0.2236,-38.9145,11.0657,11.7599,-0.0000,-0.0000,-0.0000,0.0000,-1.4761,0.8589,-0.1853,1.0000
-0.1861,5.5154,5.8907,-0.1799,-1.0415,0.7125,-36.8439,13.3316,14.6820,-0.0000,-0.0000,-0.0000,0.0000,-1.4385,0.7267,-0.1940,1.0000
0.8578,7.0956,3.1266,-0.3631,-0.0881,0.0212,-40.8829,9.0714,0.5829,-0.0000,-0.0000,-0.0000,0.0000,-1.4124,1.0298,0.0112,1.0000
0.1682,7.2276,4.9362,0.4923,-0.2405,-0.0459,-39.7141,11.0855,4.8584,-0.0000,-0.0000,-0.0000,0.0000,-1.3629,0.9409,-0.1309,1.0000
0.7640,6.3067,6.0280,0.0566,-0.0338,-0.2068,-38.6566,8.5907,8.0475,-0.0000,-0.0000,-0.0000,0.0000,-1.3855,0.9102,-0.1841,1.0000
1.2057,6.4084,5.5344,0.0854,0.0280,0.0009,-38.6078,10.5774,7.0328,-0.0000,-0.0000,-0.0000,0.0000,-1.4004,0.9025,-0.2011,1.0000
1.7165,6.6662,5.3209,0.0737,0.1526,-0.0619,-36.0458,7.8857,10.1440,-0.0000,-0.0000,-0.0000,0.0000,-1.4068,0.8984,-0.2235,1.0000
1.0293,7.0429,5.3449,0.0215,0.0173,0.1373,-39.0015,9.6619,10.1212,-0.0000,-0.0000,-0.0000,0.0000,-1.4555,0.8799,-0.2135,1.0000
0.4360,7.1690,6.1038,-0.1277,-0.0445,0.0531,-39.6164,7.2739,10.7239,-0.0000,-0.0000,-0.0000,0.0000,-1.5183,0.8979,-0.1584,1.0000
1.4332,6.3586,5.4438,-0.0361,-0.1861,0.0446,-39.5508,8.0841,9.9442,-0.0000,-0.0000,-0.0000,0.0000,-1.5360,0.9066,-0.1764,1.0000
1.8745,6.1167,5.5899,0.0183,-0.0796,-0.2334,-36.0947,1.3580,15.5121,-0.0000,-0.0000,-0.0000,0.0000,-1.6056,0.8728,-0.2382,1.0000
1.5557,6.3625,5.8979,-0.0552,-0.1808,-0.0885,-33.3130,-1.0101,21.6965,-0.0000,-0.0000,-0.0000,0.0000,-1.7634,0.8438,-0.2948,1.0000
0.6048,6.9747,5.2104,0.0928,-0.2405,-0.0406,-30.0446,3.0075,26.2573,-0.0000,-0.0000,-0.0000,0.0000,-1.8910,0.8855,-0.3329,1.0000
1.1092,7.4164,4.7447,-0.0020,0.0429,0.0308,-26.5381,4.0833,25.4349,-0.0000,-0.0000,-0.0000,0.0000,-1.7976,0.9209,-0.4239,1.0000
1.7416,6.9747,3.6606,0.2761,0.0088,0.0723,-27.0828,10.1715,26.8814,-0.0000,-0.0000,-0.0000,0.0000,-1.6229,0.9502,-0.5437,1.0000
2.2165,7.0712,2.6865,-0.0914,-0.0221,0.2651,-32.1243,16.4734,25.4059,-0.0000,-0.0000,-0.0000,0.0000,-1.3412,0.9682,-0.7184,1.0000
3.1378,7.3593,3.2950,-0.1021,0.1292,0.0052,-30.3009,18.9835,23.8815,-0.0000,-0.0000,-0.0000,0.0000,-1.2686,0.9974,-0.6714,1.0000
2.8793,3.9871,9.7458,0.2090,-3.6078,-0.1333,-37.5839,17.6376,13.1393,-0.0000,-0.0000,-0.0000,0.0000,-1.2627,0.4985,-0.2910,1.0000
3.4483,6.3055,4.7252,-0.1660,0.2251,-0.1759,-34.9442,24.9313,13.8184,-0.0000,-0.0000,-0.0000,0.0000,-1.0767,0.8416,-0.4958,1.0000
-0.4858,-1.4537,9.3983,-0.1564,0.1164,-0.2558,-37.3840,13.6124,3.3279,-0.0000,-0.0000,-0.0000,0.0000,-1.2682,0.0324,0.0725,1.0000
1.4384,1.4297,11.1081,1.6300,-0.3470,-0.1962,-38.5834,4.6326,11.1588,-0.0000,-0.0000,-0.0000,0.0000,-1.5657,0.2326,-0.1272,1.0000
3.0477,1.3227,10.5718,1.7429,2.3300,0.2545,-41.6718,10.6827,8.4946,-0.0000,-0.0000,-0.0000,0.0000,-1.4361,0.2375,-0.1587,1.0000
10.8384,-1.4984,-3.2176,-0.8883,-1.4506,1.0715,5.3665,16.1743,-52.0844,-0.0000,-0.0000,-0.0000,0.0000,1.3329,0.5853,-1.5302,1.0000
8.5483,0.8192,-1.9475,-0.0829,-0.0349,0.0340,-5.4398,18.0618,-56.0013,-0.0000,-0.0000,-0.0000,1.0000,1.2558,0.3214,-1.7519,1.0000
9.2155,0.4804,-1.2176,0.0098,0.0131,0.0073,-0.7568,21.0785,-54.4678,-0.0000,-0.0000,-0.0000,1.0000,1.2487,0.2387,-1.6814,1.0000
8.6876,2.0837,-0.6199,-0.0851,0.1856,0.0446,2.6688,22.7646,-54.3121,-0.0000,-0.0000,-0.0000,1.0000,1.1814,0.2940,-1.6201,1.0000
8.3772,2.1643,0.1279,-0.0297,-0.1840,-0.0641,6.6696,24.2035,-51.6098,-0.0000,-0.0000,-0.0000,1.0000,1.1314,0.2595,-1.5409,1.0000
9.0427,0.9688,-0.1550,0.0279,0.0131,0.0585,6.6422,23.6755,-51.1765,-0.0000,-0.0000,-0.0000,1.0000,1.1636,0.2176,-1.5637,1.0000
8.5288,1.4313,-0.2081,0.0587,-0.0327,0.0073,4.8203,24.4583,-51.4938,-0.0000,-0.0000,-0.0000,1.0000,1.1562,0.2244,-1.5642,1.0000
8.9940,1.1998,-0.1474,0.0737,-0.0285,0.0340,5.2124,24.5911,-51.9180,-0.0000,-0.0000,-0.0000,1.0000,1.1785,0.2133,-1.5713,1.0000
8.3380,1.8646,-0.1387,0.0939,0.1302,0.1969,5.2521,24.4019,-54.2908,-0.0000,-0.0000,-0.0000,1.0000,1.1833,0.2145,-1.5911,1.0000
9.2993,1.5123,0.1439,-0.0968,0.0418,-0.1013,5.8029,23.8510,-51.9760,-0.0000,-0.0000,-0.0000,1.0000,1.1557,0.2245,-1.5727,1.0000
8.6712,1.4017,0.0078,0.0502,0.2815,0.2023,4.5639,24.7101,-50.5768,-0.0000,-0.0000,-0.0000,1.0000,1.1539,0.2447,-1.6054,1.0000
8.7399,1.7856,-0.2121,0.1099,0.0514,0.1096,1.8051,26.2375,-52.7191,-0.0000,-0.0000,-0.0000,1.0000,1.1309,0.2383,-1.5937,1.0000
8.9306,1.4700,-0.1618,-0.1053,-0.0381,0.0158,2.5482,23.8785,-51.1932,-0.0000,-0.0000,-0.0000,1.0000,1.1546,0.2007,-1.5812,1.0000
8.9031,1.7178,0.1135,-0.0616,0.0067,0.0009,3.3905,25.1465,-52.7740,-0.0000,-0.0000,-0.0000,1.0000,1.1447,0.2017,-1.5674,1.0000
8.3716,1.7984,0.1574,-0.0691,0.0269,-0.1013,2.8427,25.5753,-55.5145,-0.0000,-0.0000,-0.0000,1.0000,1.1452,0.1935,-1.5587,1.0000
9.3696,1.9169,0.0784,-0.3887,0.0727,-0.3155,6.0120,26.2558,-51.8478,-0.0000,-0.0000,-0.0000,1.0000,1.1589,0.1960,-1.5614,1.0000
8.2223,1.6903,0.6211,-0.0307,0.0993,0.2278,5.1132,25.6653,-53.3981,-0.0000,-0.0000,-0.0000,1.0000,1.1285,0.2274,-1.5435,1.0000
9.3197,1.4209,0.8398,0.1195,0.0567,0.1224,7.9575,27.0966,-51.7410,-0.0000,-0.0000,-0.0000,1.0000,1.1178,0.1907,-1.4901,1.0000
8.3792,2.0789,1.0920,0.1014,0.0035,0.0478,6.7429,27.4643,-53.5843,-0.0000,-0.0000,-0.0000,1.0000,1.1020,0.2062,-1.4792,1.0000
8.0164,1.8291,0.7300,-0.0669,-0.1212,-0.0385,5.2261,28.9719,-54.1367,-0.0000,-0.0000,-0.0000,1.0000,1.0817,0.2191,-1.4830,1.0000
8.6066,1.4453,0.6718,-0.0254,0.1750,0.0787,4.4357,28.0457,-53.9551,-0.0000,-0.0000,-0.0000,1.0000,1.1396,0.1951,-1.5102,1.0000
8.0444,2.4995,0.5353,0.1770,0.0131,0.1224,2.9785,26.9501,-53.5934,-0.0000,-0.0000,-0.0000,1.0000,1.1457,0.2421,-1.5313,1.0000
8.9980,1.7090,0.0685,-0.0382,-0.0540,-0.1312,4.3259,26.0712,-55.0476,-0.0000,-0.0000,-0.0000,1.0000,1.1491,0.2090,-1.5452,1.0000
9.0084,2.4133,-0.0162,-0.0275,-0.1297,-0.1269,3.4241,23.5565,-53.4149,-0.0000,-0.0000,-0.0000,1.0000,1.1394,0.2392,-1.5452,1.0000
7.8939,2.0757,0.2021,0.1024,-0.0881,0.1202,2.2537,24.6857,-52.5787,-0.0000,-0.0000,-0.0000,1.0000,1.1412,0.2255,-1.5377,1.0000
9.0244,1.9025,0.0505,-0.0648,-0.0626,-0.1844,3.9581,26.1902,-52.3483,-0.0000,-0.0000,-0.0000,1.0000,1.1280,0.2130,-1.5458,1.0000
9.0775,1.4812,0.9304,0.0683,0.0333,0.0936,6.1584,24.2691,-50.7980,-0.0000,-0.0000,-0.0000,1.0000,1.1527,0.1912,-1.5007,1.0000
8.5136,1.8950,0.8055,-0.0723,0.1079,-0.1088,8.9279,24.6384,-49.8444,-0.0000,-0.0000,-0.0000,1.0000,1.1690,0.2030,-1.4931,1.0000
8.7698,1.5677,0.8254,-0.0254,-0.0210,0.0297,9.2453,24.2950,-51.1780,-0.0000,-0.0000,-0.0000,1.0000,1.1486,0.1994,-1.4740,1.0000
8.4881,1.5706,0.4643,0.0928,0.0045,0.1021,10.0494,21.0785,-52.9144,-0.0000,-0.0000,-0.0000,1.0000,1.2004,0.1980,-1.4524,1.0000
8.9302,1.9213,-1.0903,0.1674,-0.0296,-0.0150,12.6038,16.9388,-55.8609,-0.0000,-0.0000,-0.0000,1.0000,1.3413,0.1945,-1.4655,1.0000
8.7072,2.2900,-0.8178,0.3709,0.1100,0.2694,16.6779,3.4210,-58.8303,-0.0000,-0.0000,-0.0000,1.0000,1.6935,0.2568,-1.4885,1.0000
8.0615,2.4197,-0.3186,0.3410,0.1675,0.0947,20.6635,-6.2943,-60.2158,-0.0000,-0.0000,-0.0000,1.0000,1.9640,0.2173,-1.4871,1.0000
8.0488,2.1260,0.0808,0.2484,-0.0221,0.1064,23.0499,-16.7740,-55.6305,-0.0000,-0.0000,-0.0000,1.0000,2.1956,0.2257,-1.4866,1.0000
8.8851,2.0697,0.0457,0.1195,0.0141,0.0201,20.9412,-19.5023,-54.3427,-0.0000,-0.0000,-0.0000,1.0000,2.1992,0.2713,-1.5860,1.0000
7.7578,2.4951,-0.3306,-0.0872,-0.1957,-0.0257,17.4438,-16.8625,-57.1716,-0.0000,-0.0000,-0.0000,1.0000,2.0939,0.3049,-1.6158,1.0000
8.5144,2.5901,-0.0401,-0.0563,0.0695,-0.0001,18.2983,-13.6368,-57.5760,-0.0000,-0.0000,-0.0000,1.0000,1.9807,0.3061,-1.6412,1.0000
8.2638,2.9249,-0.2632,-0.1096,0.0077,0.0936,13.8535,-10.8719,-57.9300,-0.0000,-0.0000,-0.0000,1.0000,1.8778,0.3621,-1.6812,1.0000
8.4486,2.7078,0.0226,-0.1468,-0.0423,0.0031,11.1603,-3.5263,-60.2036,-0.0000,-0.0000,-0.0000,1.0000,1.7102,0.3586,-1.6793,1.0000
8.1517,3.6092,-0.1079,-0.1649,-0.0051,0.0201,9.1522,3.8895,-59.8007,-0.0000,-0.0000,-0.0000,1.0000,1.5257,0.4025,-1.7088,1.0000
7.7638,3.5785,-0.1199,-0.1213,-0.1350,0.1096,4.1199,15.8569,-59.0073,-0.0000,-0.0000,-0.0000,1.0000,1.2662,0.4330,-1.6786,1.0000
7.6984,3.4568,0.2169,-0.1277,-0.0658,0.0851,0.3418,24.0936,-52.2476,-0.0000,-0.0000,-0.0000,1.0000,1.0673,0.4236,-1.6511,1.0000
7.8859,3.0609,0.2504,-0.1554,-0.2032,0.1224,-3.6240,31.5384,-46.0907,-0.0000,-0.0000,-0.0000,1.0000,0.8440,0.3893,-1.6296,1.0000
9.1784,1.8718,-0.5744,-0.1490,-0.0583,-0.0587,-3.5751,35.4980,-44.0140,-0.0000,-0.0000,-0.0000,1.0000,0.7704,0.3299,-1.6193,1.0000
7.8057,3.0386,0.2404,-0.0659,0.3177,0.1660,-3.4821,37.8845,-41.3757,-0.0000,-0.0000,-0.0000,1.0000,0.7084,0.3381,-1.5548,1.0000
8.7451,1.6639,0.8781,-0.0307,0.2581,0.0446,3.6011,34.4711,-42.5247,-0.0000,-0.0000,-0.0000,1.0000,0.8196,0.2460,-1.4987,1.0000
8.7467,1.9432,0.2057,0.0055,-0.1531,-0.0651,1.7441,34.0393,-43.2022,-0.0000,-0.0000,-0.0000,1.0000,0.8821,0.2674,-1.5308,1.0000
8.8771,1.6412,0.6255,0.0161,-0.0636,-0.1120,4.1473,31.6498,-43.6386,-0.0000,-0.0000,-0.0000,1.0000,0.9151,0.2328,-1.4985,1.0000
8.5910,1.6336,0.9659,0.1173,-0.0562,0.1224,6.9153,31.9885,-43.3258,-0.0000,-0.0000,-0.0000,1.0000,0.9302,0.1963,-1.4751,1.0000
1.4232,4.9224,7.0775,-2.5831,-0.6431,-1.5980,-35.7971,35.5026,4.8187,-0.0000,-0.0000,-0.0000,0.0000,-0.7615,0.7591,-0.5391,1.0000
0.7396,5.5130,6.7072,0.2835,0.2740,-0.0758,-46.2326,7.4173,22.9889,-0.0000,-0.0000,-0.0000,0.0000,-1.5624,0.8322,-0.2321,1.0000
-0.3685,5.8143,6.5468,0.1152,-0.0945,-0.1056,-46.3425,7.0602,23.1201,-0.0000,-0.0000,-0.0000,0.0000,-1.6607,0.8655,-0.1127,1.0000
-2.1669,6.1443,6.4470,-0.3322,-0.2575,0.0499,-45.9976,8.2718,20.6726,-0.0000,-0.0000,-0.0000,0.0000,-1.6829,0.8348,-0.0836,1.0000
4.6693,6.1503,1.2875,0.3293,1.2552,-0.3932,-32.8033,35.2173,28.2181,-0.0000,-0.0000,-0.0000,0.0000,-1.0715,0.9903,-1.0028,1.0000
1.6534,6.9160,4.5408,-0.0765,0.0344,0.4377,-40.5792,23.1689,18.6050,-0.0000,-0.0000,-0.0000,0.0000,-1.3447,0.9983,-0.3776,1.0000
1.2021,7.2328,4.2898,0.3325,0.0738,0.0393,-44.6548,18.6127,15.5670,-0.0000,-0.0000,-0.0000,0.0000,-1.4620,1.0160,-0.2271,1.0000
0.8199,6.7225,4.8361,-0.0712,0.0258,0.1170,-44.8151,18.1976,15.9317,-0.0000,-0.0000,-0.0000,0.0000,-1.5001,1.0301,-0.1834,1.0000
0.4507,7.2560,4.0983,-0.2800,-0.0679,-0.0704,-44.4672,17.5461,15.4648,-0.0000,-0.0000,-0.0000,0.0000,-1.5244,1.0274,-0.1595,1.0000
-0.5664,6.9451,5.2842,0.2260,0.0525,0.2097,-45.7169,16.9815,15.6479,-0.0000,-0.0000,-0.0000,0.0000,-1.5785,1.0050,-0.1078,1.0000
0.2393,7.3745,5.4362,0.2739,0.0322,-0.1003,-43.8980,15.9515,15.6815,-0.0000,-0.0000,-0.0000,0.0000,-1.5514,0.9835,-0.1311,1.0000
1.1590,6.7967,5.8401,-0.2321,-0.0945,0.0020,-45.5261,17.2791,16.2613,-0.0000,-0.0000,-0.0000,0.0000,-1.5206,0.9896,-0.1152,1.0000
1.1259,6.8214,5.2212,-0.1351,-0.0040,-0.0672,-44.7708,16.1453,15.2832,-0.0000,-0.0000,-0.0000,0.0000,-1.5338,0.9779,-0.1029,1.0000
0.1411,7.4340,4.3385,0.1504,0.0855,0.0116,-46.1426,19.6243,12.3550,-0.0000,-0.0000,-0.0000,0.0000,-1.4938,0.9714,-0.1037,1.0000
-0.0943,7.2368,4.2806,-0.0648,1.0208,0.3077,-45.5002,19.5709,9.8969,-0.0000,-0.0000,-0.0000,0.0000,-1.4933,0.9761,-0.0912,1.0000
5.3493,3.1998,6.9913,-0.2651,-0.3619,-0.2697,-35.4767,23.1415,20.7291,-0.0000,-0.0000,-0.0000,0.0000,-1.1805,0.4922,-0.4533,1.0000
0.5074,0.4042,10.6357,0.3389,1.8581,1.8119,-43.3380,16.9479,10.8078,-0.0000,-0.0000,-0.0000,0.0000,-1.4745,0.3533,-0.0887,1.0000
-0.0696,5.5848,5.9366,0.4465,-0.2703,0.0457,-46.0388,11.6440,16.3895,-0.0000,-0.0000,-0.0000,0.0000,-1.5090,0.5770,0.0609,1.0000
0.1395,5.1990,7.3767,0.0268,0.2975,-0.0641,-45.4575,11.1465,15.1520,-0.0000,-0.0000,-0.0000,0.0000,-1.5474,0.6214,-0.0005,1.0000
-1.2587,5.2129,7.3025,0.1674,-0.1957,0.1021,-47.0795,8.1787,15.7394,-0.0000,-0.0000,-0.0000,0.0000,-1.6084,0.6192,0.0144,1.0000
-0.2484,5.2560,6.7231,-0.0765,0.1537,-0.0268,-46.7392,9.6268,14.7217,-0.0000,-0.0000,-0.0000,0.0000,-1.6002,0.6279,0.0300,1.0000
0.0050,4.6842,8.3201,0.3549,0.0184,0.1426,-44.7662,6.4438,15.7761,-0.0000,-0.0000,-0.0000,0.0000,-1.6266,0.5641,0.0176,1.0000
-0.5508,4.6467,7.8652,0.0044,-0.0402,-0.0683,-45.4514,8.4442,14.1159,-0.0000,-0.0000,-0.0000,0.0000,-1.6367,0.5534,0.0366,1.0000
0.6894,4.7117,7.5783,0.1142,0.0141,0.0425,-44.7952,9.5581,14.7598,-0.0000,-0.0000,-0.0000,0.0000,-1.5927,0.5745,-0.0065,1.0000
1.3522,5.1152,7.5727,-0.3013,-0.2746,-0.2643,-44.0262,6.3248,16.5237,-0.0000,-0.0000,-0.0000,0.0000,-1.6460,0.6041,-0.0186,1.0000
-0.0093,5.2129,7.4234,0.3506,0.0717,0.0009,-45.8252,7.5729,17.4026,-0.0000,-0.0000,-0.0000,0.0000,-1.6595,0.6400,-0.0097,1.0000
0.5613,4.9145,7.8428,-0.6166,0.0163,-0.0513,-44.9753,8.7738,19.3146,-0.0000,-0.0000,-0.0000,0.0000,-1.6112,0.6145,-0.0707,1.0000
2.3442,6.0353,5.8696,0.3730,0.0397,0.0489,-41.9220,9.6375,25.3937,-0.0000,-0.0000,-0.0000,0.0000,-1.6887,0.7886,-0.1641,1.0000
0.1926,5.9168,6.1505,-0.2491,-0.0146,-0.2388,-46.0617,10.5942,15.9744,-0.0000,-0.0000,-0.0000,0.0000,-1.6176,0.6987,-0.0342,1.0000
1.1012,6.1977,6.6014,-0.1266,0.6831,0.4675,-42.5385,8.5587,24.2493,-0.0000,-0.0000,-0.0000,0.0000,-1.7206,0.7618,-0.1566,1.0000
-0.1023,6.0114,6.8899,0.1664,0.1718,0.1426,-45.8679,11.3235,18.6752,-0.0000,-0.0000,-0.0000,0.0000,-1.6359,0.7080,-0.0687,1.0000
0.2018,5.7688,5.8125,0.0513,-0.5441,-0.0641,-45.0119,10.5835,20.5887,-0.0000,-0.0000,-0.0000,0.0000,-1.6321,0.7152,-0.0395,1.0000
0.0717,6.7345,4.9630,-0.3152,-0.3065,-0.2430,-44.5206,8.4076,26.8555,-0.0000,-0.0000,-0.0000,0.0000,-1.7352,0.8534,-0.1398,1.0000
3.3142,7.4539,3.7934,-0.6081,-2.1995,-0.1876,-41.0614,11.5891,29.0359,-0.0000,-0.0000,-0.0000,0.0000,-1.7594,0.9260,-0.1713,1.0000
2.2847,7.4128,4.3177,0.1173,-0.8061,-0.2728,-40.0711,8.4442,31.6818,-0.0000,-0.0000,-0.0000,0.0000,-1.7807,1.0117,-0.2437,1.0000
0.5322,6.8302,5.2599,-0.1596,-0.6346,-0.2984,-44.2963,9.7305,23.8510,-0.0000,-0.0000,-0.0000,0.0000,-1.7409,0.8859,-0.1319,1.0000
0.3095,6.8466,5.3804,0.1014,-0.1105,-0.2185,-42.2623,11.2534,25.2121,-0.0000,-0.0000,-0.0000,0.0000,-1.7419,0.9168,-0.1625,1.0000
1.4827,6.5525,5.8572,-0.1543,-0.1968,-0.1855,-36.6623,11.8195,28.4485,-0.0000,-0.0000,-0.0000,0.0000,-1.7727,0.8952,-0.2418,1.0000
1.3613,6.7113,6.2156,-0.0488,-0.2937,-0.2515,-34.3262,10.1837,34.5276,-0.0000,-0.0000,-0.0000,0.0000,-1.8861,0.8878,-0.2852,1.0000
1.5389,6.8941,6.4147,0.3751,-0.0743,-0.1567,-30.5054,9.3246,35.1868,-0.0000,-0.0000,-0.0000,0.0000,-1.9514,0.9154,-0.3207,1.0000
2.6558,6.2165,3.3924,-0.5602,-0.0849,0.0808,-36.1404,5.7144,28.1097,-0.0000,-0.0000,-0.0000,0.0000,-1.9052,0.9196,-0.3135,1.0000
0.3965,6.5465,3.1019,0.1056,-0.0296,0.0084,-26.7227,4.3991,36.2595,-0.0000,-0.0000,-0.0000,0.0000,-2.0339,0.8875,-0.2853,1.0000
0.4404,6.4898,6.5583,-0.1831,0.4253,0.4686,-31.3797,0.5814,34.0485,-0.0000,-0.0000,-0.0000,0.0000,-1.9706,0.8427,-0.2339,1.0000
1.7771,5.8590,5.8085,0.0673,0.0205,0.0457,-32.0282,9.0790,33.9401,-0.0000,-0.0000,-0.0000,0.0000,-1.7475,0.7185,-0.3428,1.0000
1.7907,6.1203,5.6908,-0.0030,-0.1095,0.2364,-34.0149,14.5752,33.1848,-0.0000,-0.0000,-0.0000,0.0000,-1.6280,0.7510,-0.3967,1.0000
1.9970,6.3238,5.0045,0.2100,0.2634,0.2630,-36.0947,18.1564,31.2363,-0.0000,-0.0000,-0.0000,0.0000,-1.4906,0.8366,-0.3749,1.0000
-0.1271,6.2716,6.0001,0.1056,0.0035,0.1458,-42.3157,12.3444,26.6586,-0.0000,-0.0000,-0.0000,0.0000,-1.6693,0.7968,-0.1037,1.0000
1.9794,7.1259,4.1673,-0.0084,0.4647,0.1511,-41.5268,15.4190,27.7863,-0.0000,-0.0000,-0.0000,0.0000,-1.6308,0.9557,-0.2483,1.0000
0.9866,6.6263,6.1892,-0.4781,0.4669,-0.1429,-44.6152,11.9675,21.4050,-0.0000,-0.0000,-0.0000,0.0000,-1.6507,0.8444,-0.0879,1.0000
0.9503,6.2476,5.3022,-0.1479,0.0397,-0.1045,-42.9749,14.6881,20.1462,-0.0000,-0.0000,-0.0000,0.0000,-1.5793,0.8417,-0.0565,1.0000
0.1251,6.0218,6.3405,0.1983,-0.8935,-0.2824,-45.1843,14.4760,18.6951,-0.0000,-0.0000,-0.0000,0.0000,-1.6091,0.8640,-0.0159,1.0000
1.5118,7.6163,4.9798,-0.4313,1.3212,0.5048,-39.6332,9.7900,29.8676,-0.0000,-0.0000,-0.0000,0.0000,-1.7876,0.9862,-0.2396,1.0000
-1.8804,3.9376,9.3212,-1.6617,-0.7934,-0.7980,-47.6837,-0.0916,11.6577,-0.0000,-0.0000,-0.0000,0.0000,-1.7781,0.6338,0.2113,1.0000
-3.6768,6.1670,5.5532,0.1844,0.0727,0.1586,-48.4818,10.2859,-0.0153,-0.0000,-0.0000,-0.0000,0.0000,-1.6846,0.7239,0.4044,0.0000
-0.5923,-1.4948,11.8280,-1.0246,1.0283,4.5336,-21.2296,-18.4158,-7.3288,-0.0000,-0.0000,-0.0000,0.0000,-2.3612,-0.0488,0.2716,0.0000
-5.3624,-4.1743,11.2617,1.1890,-1.1023,1.3549,-58.1024,8.9142,-59.7549,-0.0000,-0.0000,-0.0000,0.0000,-1.4920,-0.1916,0.3158,0.0000
-5.8257,5.4468,5.4849,-2.8835,3.8970,-3.0915,-33.4595,-18.9407,27.4689,-0.0000,-0.0000,-0.0000,0.0000,-2.5037,0.9066,-0.1052,0.0000
-6.1924,4.7600,-4.7279,0.0694,0.0983,0.0222,-21.1502,-19.3726,-11.8073,-0.0000,-0.0000,-0.0000,0.0000,3.0323,0.6652,1.9404,0.0000
-7.0982,5.7205,-4.4977,0.1067,0.0067,-0.1035,-22.2443,-19.9783,-12.3016,-0.0000,-0.0000,-0.0000,0.0000,2.9973,0.6410,1.9785,0.0000
-6.4489,4.9324,-4.5436,0.1291,-0.0168,-0.0683,-21.0373,-20.9183,-11.1679,-0.0000,-0.0000,-0.0000,0.0000,2.9687,0.6205,2.0171,0.0000
-4.4406,5.8514,-4.2260,-0.1639,-0.0935,-0.2910,-27.3941,-16.1224,-8.5953,-0.0000,-0.0000,-0.0000,0.0000,2.6821,0.7818,2.1328,0.0000
-6.6082,6.4168,-3.8860,0.0854,-0.0157,0.0126,-24.9466,-15.2924,-8.7616,-0.0000,-0.0000,-0.0000,0.0000,2.7355,0.7375,2.0811,0.0000
-5.0627,5.7548,-3.6737,-0.0116,-0.0519,-0.0758,-23.0453,-16.5741,-5.8014,-0.0000,-0.0000,-0.0000,0.0000,2.7064,0.7213,2.0921,0.0000
-5.8312,5.7305,-4.2323,-0.2406,-0.1148,0.0297,-24.5438,-16.5039,-4.3243,-0.0000,-0.0000,-0.0000,0.0000,2.6881,0.7118,2.1062,0.0000
-5.5364,5.9962,-3.5077,0.1163,-0.0093,-0.0289,-26.7288,-16.2888,-6.4148,-0.0000,-0.0000,-0.0000,0.0000,2.6694,0.7027,2.1263,0.0000
-6.0016,6.5916,-4.5859,-0.0712,-0.0743,0.0009,-27.7374,-17.4637,-6.5140,-0.0000,-0.0000,-0.0000,0.0000,2.6631,0.7107,2.1294,0.0000
-5.4442,5.4571,-4.2355,-0.0105,0.0493,0.0169,-26.7181,-15.4907,-5.4260,-0.0000,-0.0000,-0.0000,0.0000,2.6505,0.7105,2.1466,0.0000
-6.4469,5.7879,-4.5033,-0.0552,0.0216,0.0606,-26.0513,-18.7241,-6.8436,-0.0000,-0.0000,-0.0000,0.0000,2.6386,0.6903,2.1715,0.0000
-6.7845,6.2464,-4.7152,0.0950,-0.0274,0.0158,-28.1723,-16.1667,-8.0185,-0.0000,-0.0000,-0.0000,0.0000,2.6387,0.6814,2.1820,0.0000
-5.9813,6.1830,-4.7088,-0.0872,-0.0082,-0.0087,-27.8015,-15.1596,-7.9422,-0.0000,-0.0000,-0.0000,0.0000,2.6445,0.6982,2.1831,0.0000
-5.5020,5.9124,-4.1777,-0.0531,-0.0146,-0.0119,-25.6760,-15.9775,-6.5002,-0.0000,-0.0000,-0.0000,0.0000,2.6428,0.7012,2.1835,0.0000
-6.3867,6.7436,-3.9398,-0.2438,0.0131,0.2257,-27.6367,-15.3778,-9.3338,-0.0000,-0.0000,-0.0000,0.0000,2.6312,0.7247,2.1970,0.0000
-3.6369,8.4982,-3.4846,0.0620,-0.0402,0.1117,-34.8892,-13.4293,-12.4054,-0.0000,-0.0000,-0.0000,0.0000,2.4258,0.9892,2.4260,0.0000
-3.2758,7.5556,-3.7076,-0.3088,-0.0157,0.2545,-34.2468,-13.4399,-10.7986,-0.0000,-0.0000,-0.0000,0.0000,2.4475,0.9818,2.3860,0.0000
-3.2710,6.9072,-2.7771,0.0950,0.0301,0.0009,-31.3507,-13.3224,-11.7050,-0.0000,-0.0000,-0.0000,0.0000,2.4683,0.9999,2.3608,0.0000
-3.6669,8.0764,-3.4546,0.1930,0.1047,0.0680,-32.5546,-12.6801,-9.1675,-0.0000,-0.0000,-0.0000,0.0000,2.4401,0.9876,2.3960,0.0000
-5.3173,9.7268,-2.6753,-2.1623,-3.0911,-0.0513,-37.7670,-13.4827,-7.5424,-0.0000,-0.0000,-0.0000,0.0000,2.6377,1.0595,2.1100,0.0000
2.0002,1.3790,9.5658,-0.7647,-1.9076,-0.5711,-45.2942,7.3761,13.4949,-0.0000,-0.0000,-0.0000,0.0000,-1.6745,0.4113,-0.0086,0.0000
-0.1630,3.6946,8.1796,0.3847,-0.1989,-0.0800,-46.8033,4.9957,11.8759,-0.0000,-0.0000,-0.0000,0.0000,-1.7938,0.4964,0.0118,0.0000
-0.5081,2.2210,9.7706,-0.3663,0.2080,0.8137,-46.8033,1.9592,10.0876,-0.0000,-0.0000,-0.0000,0.0000,-1.8077,0.4333,0.0114,0.0000
0.2879,3.9432,5.3293,-2.7599,1.1454,0.2704,-45.5917,1.4648,10.0067,-0.0000,-0.0000,-0.0000,0.0000,-1.8412,0.5457,-0.0296,1.0000
-0.3465,0.1137,11.1891,-2.1133,0.3625,-1.4627,-46.3196,-2.5024,10.2615,-0.0000,-0.0000,-0.0000,0.0000,-1.8154,0.1675,0.0011,1.0000
-0.6219,3.1926,8.8500,-0.8861,0.3827,-1.1868,-46.8826,-4.0390,8.1802,-0.0000,-0.0000,-0.0000,0.0000,-1.8009,0.3125,0.0595,1.0000
0.4795,6.1770,3.4945,0.5424,0.6831,0.0350,-43.5822,-2.9022,27.7756,-0.0000,-0.0000,-0.0000,0.0000,-2.0402,0.6766,-0.0270,1.0000
0.2887,5.6116,6.6086,-0.0978,0.2304,0.0169,-46.8155,0.0061,20.4315,-0.0000,-0.0000,-0.0000,0.0000,-2.0651,0.7566,0.0614,1.0000
0.8534,5.0198,8.2243,1.0771,0.8525,1.4103,-48.8052,4.9225,13.6902,-0.0000,-0.0000,-0.0000,0.0000,-1.9956,0.4875,-0.0250,1.0000
-0.6869,6.3594,4.5193,0.0289,0.1047,-0.1919,-42.7628,-4.2755,-2.1194,-0.0000,-0.0000,-0.0000,0.0000,-1.9814,0.8388,0.2623,1.0000
-0.6470,6.1124,4.9574,-0.1639,-0.0370,-0.1045,-43.9102,-4.7592,-0.6516,-0.0000,-0.0000,-0.0000,0.0000,-2.0145,0.8875,0.2735,1.0000
-1.5755,7.2823,5.7547,-0.0648,0.0802,-0.0992,-43.4875,-3.9154,0.9384,-0.0000,-0.0000,-0.0000,0.0000,-2.0512,0.9000,0.2921,1.0000
-1.9530,6.4819,5.0691,0.0289,0.0226,0.0798,-42.0349,-6.4499,-0.1282,-0.0000,-0.0000,-0.0000,0.0000,-2.0733,0.8925,0.3301,1.0000
-1.1909,6.4076,5.5065,0.0865,-0.0306,-0.0566,-42.7887,-5.7053,-0.8163,-0.0000,-0.0000,-0.0000,0.0000,-2.0862,0.9114,0.3431,1.0000
2.1171,8.4427,2.8541,-1.0928,-0.0967,0.0329,-29.4418,30.6686,-24.4858,-0.0000,-0.0000,-0.0000,0.0000,0.7890,1.2526,-1.7346,1.0000
4.1697,6.3725,-3.5915,0.4124,-0.2650,-0.1802,-33.8760,16.8472,-29.3945,-0.0000,-0.0000,-0.0000,0.0000,1.4838,1.0122,-2.4994,1.0000
3.2923,6.2620,-4.0316,-0.3524,0.0535,0.0148,-32.4997,19.8044,-27.9434,-0.0000,-0.0000,-0.0000,0.0000,1.3533,1.0558,-2.3937,1.0000
3.8697,6.4938,-3.4522,0.1184,-0.0413,0.0308,-30.3848,19.4717,-26.6525,-0.0000,-0.0000,-0.0000,0.0000,1.2332,1.0311,-2.2757,1.0000
3.8349,6.9579,-2.7794,0.1280,-0.0072,0.1000,-30.4581,20.1248,-27.1637,-0.0000,-0.0000,-0.0000,0.0000,1.1553,0.9982,-2.2204,1.0000
3.9451,6.9743,-1.6334,-0.0062,-0.0530,0.0063,-29.8630,25.1541,-25.0565,-0.0000,-0.0000,-0.0000,0.0000,0.9510,1.0238,-2.0216,1.0000
4.3788,7.6925,0.0429,0.0247,0.0535,0.0819,-24.8489,27.0126,-25.4517,-0.0000,-0.0000,-0.0000,0.0000,0.7109,1.0440,-1.6896,1.0000
3.2831,7.4431,0.1195,-0.0648,0.0376,0.0766,-25.7782,23.8708,-24.8856,-0.0000,-0.0000,-0.0000,0.0000,0.7145,1.0522,-1.6739,1.0000
4.7340,7.8310,-1.4319,0.5861,-1.1087,-0.0598,-25.0671,26.0056,-26.1276,-0.0000,-0.0000,-0.0000,0.0000,0.7817,1.0422,-1.7239,1.0000
-2.6134,7.1514,-5.0005,0.2516,-0.0604,-0.1962,-62.1887,25.0290,1.5121,-0.0000,-0.0000,-0.0000,0.0000,1.6483,1.0470,2.8928,1.0000
0.6634,7.9467,-3.1573,-0.6869,0.4083,0.3866,-49.7711,27.7420,-2.6901,-0.0000,-0.0000,-0.0000,0.0000,1.2721,1.2029,-2.9510,1.0000
0.8414,8.2552,2.2520,0.3240,-0.3001,-0.1088,-42.0105,13.8870,13.5208,-0.0000,-0.0000,-0.0000,0.0000,-1.5739,1.2274,-0.5074,1.0000
0.8015,8.3489,1.5269,0.3261,-0.0509,-0.1227,-41.4368,11.5707,12.8006,-0.0000,-0.0000,-0.0000,0.0000,-1.5529,1.3229,-0.5392,1.0000
1.3829,8.0760,1.4040,-0.3439,-0.1297,-0.0491,-42.3798,12.9333,14.2868,-0.0000,-0.0000,-0.0000,0.0000,-1.5349,1.3488,-0.5831,1.0000
0.7660,8.4535,1.5265,0.0620,0.0887,0.1117,-40.8493,11.4944,15.4709,-0.0000,-0.0000,-0.0000,0.0000,-1.5635,1.3560,-0.5999,1.0000
1.4120,8.3617,0.5178,-0.3205,0.1441,0.0585,-41.2521,10.5621,16.1636,-0.0000,-0.0000,-0.0000,0.0000,-1.7244,1.3392,-0.4866,1.0000
0.5948,8.8673,2.2196,-0.2459,0.0599,0.0766,-41.5237,10.6964,15.4144,-0.0000,-0.0000,-0.0000,0.0000,-1.7707,1.2786,-0.4203,1.0000
1.7336,8.0349,2.4706,-0.0691,0.1931,0.0872,-39.6667,10.3226,17.8055,-0.0000,-0.0000,-0.0000,0.0000,-1.7223,1.2895,-0.4879,1.0000
0.0733,8.8549,1.9742,0.6148,0.9143,0.1181,-40.8615,8.4091,14.8499,-0.0000,-0.0000,-0.0000,0.0000,-1.8885,1.2783,-0.3625,1.0000
3.0740,7.2576,-5.1074,0.5051,0.4860,0.1916,-33.8318,17.3874,-15.2252,-0.0000,-0.0000,-0.0000,0.0000,0.5735,1.1452,-2.0096,1.0000
3.9914,6.9982,-2.5592,-0.1213,0.0930,0.0446,-30.5847,17.8528,-13.0737,-0.0000,-0.0000,-0.0000,0.0000,0.7000,1.0823,-2.0531,1.0000
3.9862,6.3578,-2.3413,-0.1117,-0.0530,-0.0609,-32.2754,18.5623,-14.7049,-0.0000,-0.0000,-0.0000,0.0000,0.7425,1.0631,-2.1010,1.0000
4.1091,6.8992,-3.9913,-0.1990,-0.1648,-0.0097,-33.8928,17.3447,-14.6103,-0.0000,-0.0000,-0.0000,0.0000,0.8219,1.0437,-2.2093,1.0000
3.1466,6.3194,-2.5640,-0.0424,-0.1254,0.0414,-37.7548,17.5095,-10.9909,-0.0000,-0.0000,-0.0000,0.0000,0.9380,0.9400,-2.4482,1.0000
3.6163,7.1462,-3.1617,-0.1468,0.0301,0.0478,-33.6700,17.9047,-10.6094,-0.0000,-0.0000,-0.0000,0.0000,0.7908,0.9903,-2.3080,1.0000
4.1294,6.8103,-3.3441,-0.2299,0.2442,0.0489,-33.2504,20.7382,-8.8257,-0.0000,-0.0000,-0.0000,0.0000,0.7049,1.0025,-2.2640,1.0000
3.5333,6.2568,-2.7148,-0.4377,0.2826,-0.3272,-32.5928,21.7041,-9.1614,-0.0000,-0.0000,-0.0000,0.0000,0.6055,1.0198,-2.1973,1.0000
3.6291,7.0784,-2.5696,0.0715,0.0354,0.0201,-33.2382,21.4218,-8.7616,-0.0000,-0.0000,-0.0000,0.0000,0.5906,1.0367,-2.1593,1.0000
3.4603,7.0868,-2.2751,0.1631,-0.0647,0.0169,-35.2066,20.5307,-8.7570,-0.0000,-0.0000,-0.0000,0.0000,0.6233,1.0232,-2.2031,1.0000
3.8956,6.6989,-2.2041,-0.8787,-1.3025,-0.4678,-35.3912,21.1563,2.2461,-0.0000,-0.0000,-0.0000,0.0000,0.5432,1.0787,-2.4325,1.0000
1.9168,8.2408,1.9016,-1.3218,0.1100,0.4377,-34.0240,19.2932,24.6277,-0.0000,-0.0000,-0.0000,0.0000,-1.1911,1.2735,-1.0398,1.0000
8.7008,-3.6644,1.8593,-0.1255,0.4179,0.2779,14.5111,26.9318,-15.5823,-0.0000,-0.0000,-0.0000,0.0000,0.3071,-0.1684,-1.4611,1.0000
8.2734,-2.0654,0.5193,-0.1884,-0.2128,-0.2100,12.5046,27.8046,-10.1700,-0.0000,-0.0000,-0.0000,0.0000,0.1874,-0.1703,-1.4925,1.0000
1.3298,6.8071,6.6385,-0.1639,0.0195,-0.0364,-22.7295,1.3275,36.8774,-0.0000,-0.0000,-0.0000,0.0000,-2.2504,0.9450,-0.4581,1.0000