a02a5c6f-6e8f-4019-aba2-1b2cd4104a30,DS,1659770140469
Accelerometer x,Accelerometer y,Accelerometer z,Gyroscope x,Gyroscope y,Gyroscope z,Magnetometer x,Magnetometer y,Magnetometer z,GPS-Longitude,GPS-Latitude,GPS-Speed,Proximity_ON/OFF,Orientation yaw,Orientation pitch,Orientation roll,Screen
-1.1761,3.8626,7.8280,1.6705,-1.3047,-0.9056,-40.4938,6.1462,-2.1622,-0.0000,-0.0000,-0.0000,0.0000,-1.1879,0.4096,0.4163,1.0000
-6.8460,1.7090,8.2391,1.7483,4.0813,-0.0278,-24.5972,8.1192,-23.9792,-0.0000,-0.0000,-0.0000,0.0000,-1.2002,0.1782,0.4128,1.0000
0.9340,5.9368,-7.0994,0.1344,0.6490,0.2033,19.4061,-23.7045,-11.8301,-0.0000,-0.0000,-0.0000,0.0000,-2.4955,0.8352,2.9746,1.0000
0.5880,4.7640,-7.8360,0.0417,0.0461,0.0403,18.6661,-27.2186,-4.1290,-0.0000,-0.0000,-0.0000,0.0000,-2.6062,0.5968,-3.0838,1.0000
-5.7574,10.5261,-1.0580,-3.7080,-4.7710,0.9298,14.6622,-15.4221,-25.3128,-0.0000,-0.0000,-0.0000,0.0000,-2.0229,1.1469,2.0774,1.0000
-3.5687,3.5769,5.3612,1.9294,-1.2269,0.9384,28.5645,40.8340,57.5363,-0.0000,-0.0000,-0.0000,0.0000,0.9930,1.0522,1.6059,1.0000
-6.7414,4.8259,-3.7922,-0.0936,0.0386,0.2257,52.0340,45.1157,19.8029,-0.0000,-0.0000,-0.0000,0.0000,0.2204,0.8915,2.0253,1.0000
-5.9577,6.7835,-1.4148,0.4699,0.2868,-0.2206,54.3213,41.3101,20.3033,-0.0000,-0.0000,-0.0000,0.0000,0.1674,0.8982,2.0287,1.0000
-6.5311,6.2851,-2.6685,0.0843,-0.0242,-0.1205,49.4568,45.9045,18.4448,-0.0000,-0.0000,-0.0000,0.0000,0.1545,0.8253,2.0452,1.0000
-4.0125,7.5636,-1.4978,-0.5495,0.8759,0.0084,50.5020,41.4185,39.2746,-0.0000,-0.0000,-0.0000,0.0000,0.7511,0.9945,1.6927,1.0000
-3.5117,7.9132,-2.0859,-0.1649,-0.2181,-0.3133,58.5388,37.1429,35.1593,-0.0000,-0.0000,-0.0000,0.0000,0.2076,1.0352,2.1940,1.0000
-4.9023,7.4994,2.1829,0.4476,-0.1361,-0.0704,-15.0070,9.4284,62.7380,-0.0000,-0.0000,-0.0000,0.0000,1.8849,1.1030,1.6486,1.0000
-1.5476,8.0018,3.5943,0.4572,-0.4951,-0.1227,-33.3359,-15.9927,66.4322,-0.0000,-0.0000,-0.0000,0.0000,-2.5167,1.2845,0.2092,1.0000
-2.7511,6.7388,6.0384,0.6617,-0.1531,0.3407,-12.4100,-32.6401,91.1591,-0.0000,-0.0000,-0.0000,0.0000,2.9364,0.9981,0.8158,1.0000
3.7336,9.3254,-4.4211,0.4092,0.7982,-0.0747,-17.6224,44.1666,37.8204,-0.0000,-0.0000,-0.0000,0.0000,0.4415,1.1903,-2.6306,1.0000
0.7947,7.6183,-0.0872,-0.0808,0.0599,-0.1983,-40.8966,32.6508,7.0160,-0.0000,-0.0000,-0.0000,0.0000,0.3483,1.1868,-1.7423,1.0000
1.8138,6.7181,-0.6973,0.5232,0.5990,0.2768,-43.6417,31.8665,-7.2083,-0.0000,-0.0000,-0.0000,0.0000,1.0737,1.3494,-2.0081,1.0000
-4.0108,3.5458,-7.2422,0.0130,0.3220,2.8494,-29.9377,26.7715,29.4449,-0.0000,-0.0000,-0.0000,0.0000,2.6871,1.1195,2.4323,1.0000
-3.7387,7.8481,0.2137,-0.3418,-0.7838,-0.0332,-3.6026,-4.7272,53.2120,-0.0000,-0.0000,-0.0000,0.0000,3.0154,1.2315,1.3626,1.0000
-1.8493,7.7452,2.8286,-0.8638,-0.4706,0.4441,-7.4997,-27.3254,48.3627,-0.0000,-0.0000,-0.0000,0.0000,-2.6322,1.1481,0.4619,1.0000
2.6203,8.4084,-3.6003,-0.8020,0.1089,-0.0076,-46.7606,20.4041,-27.0218,-0.0000,-0.0000,-0.0000,0.0000,1.0109,1.4471,-1.5395,1.0000
3.2791,7.3677,3.8692,0.0896,-0.4738,-0.3506,-50.1419,28.1479,-15.5365,-0.0000,-0.0000,-0.0000,0.0000,-0.1145,1.1819,-0.6121,1.0000
-4.9123,6.7041,-2.2699,1.5214,0.3774,0.7519,27.9892,11.7172,72.1954,-0.0000,-0.0000,-0.0000,0.0000,2.2692,1.1735,1.2755,1.0000
-0.9012,5.7568,-5.7515,0.7767,1.0975,0.9895,17.5659,34.9991,57.5272,-0.0000,-0.0000,-0.0000,0.0000,0.7263,1.1470,2.7010,1.0000
5.5201,11.3241,2.9762,-1.5125,-1.2919,-0.3666,-43.0771,20.0684,14.6469,-0.0000,-0.0000,-0.0000,0.0000,-0.0135,1.1150,-1.5312,1.0000
-0.1530,5.9519,4.4901,-0.8627,-0.3470,0.1213,-43.6493,-13.6978,16.5863,-0.0000,-0.0000,-0.0000,0.0000,-1.8847,0.8720,-0.2408,1.0000
0.6738,5.2836,7.0795,0.1525,-0.0018,-0.1077,-41.4597,-8.4824,15.8081,-0.0000,-0.0000,-0.0000,0.0000,-1.7880,0.7973,-0.1593,1.0000
0.0733,5.5270,7.3504,-0.0435,-0.0413,0.0776,-43.1854,-6.8527,17.2272,-0.0000,-0.0000,-0.0000,0.0000,-1.7541,0.8127,-0.0638,1.0000
-0.2164,5.2105,6.6924,0.1504,0.2144,0.1618,-44.1895,-4.9698,16.4139,-0.0000,-0.0000,-0.0000,0.0000,-1.7175,0.7708,-0.0817,1.0000
0.0533,5.7963,6.1860,-0.3045,0.1952,-0.2867,-43.0695,-5.0247,14.8315,-0.0000,-0.0000,-0.0000,0.0000,-1.7418,0.7701,-0.0111,1.0000
-0.9247,6.1211,7.3524,-0.5122,-0.3150,-0.1706,-42.5842,-9.1614,14.2853,-0.0000,-0.0000,-0.0000,0.0000,-1.8103,0.6939,-0.0066,1.0000
-0.3218,6.7325,4.9794,-0.1351,-0.0018,-0.1269,-43.4967,-9.5444,15.5579,-0.0000,-0.0000,-0.0000,0.0000,-1.8980,0.8350,0.0845,1.0000
-1.2966,5.4220,7.6357,0.7107,0.3316,0.3429,-45.2560,-5.0400,13.8596,-0.0000,-0.0000,-0.0000,0.0000,-1.7874,0.8383,0.0815,1.0000
3.5313,9.0576,3.1697,2.7390,-3.3734,-2.6431,-21.4401,5.7373,61.0580,-0.0000,-0.0000,-0.0000,0.0000,-2.1240,1.2288,-0.1566,1.0000
-3.0173,8.1115,0.1909,0.2516,-0.1659,0.1064,44.8044,25.1419,68.5059,-0.0000,-0.0000,-0.0000,0.0000,1.5126,1.3575,1.4812,1.0000
-3.5340,7.6841,-2.4159,-0.2555,0.0184,-0.0140,32.6828,47.2137,54.9881,-0.0000,-0.0000,-0.0000,0.0000,0.6583,1.1361,2.4237,1.0000
-3.4306,7.8996,-1.5381,-0.0510,0.0344,0.0073,36.0214,37.8815,55.9738,-0.0000,-0.0000,-0.0000,0.0000,0.7422,1.2051,2.3087,1.0000
-3.6230,7.9986,-2.4076,0.1386,-0.0871,0.0787,37.1902,40.6815,54.0359,-0.0000,-0.0000,-0.0000,0.0000,0.7231,1.1430,2.2881,1.0000
-3.0572,7.3378,-3.3425,-0.4654,-0.2319,0.0925,37.8067,36.6211,55.3024,-0.0000,-0.0000,-0.0000,0.0000,0.7723,1.1478,2.1682,1.0000
-4.1916,8.4874,-0.9192,-0.0446,0.1175,-0.0278,40.8249,29.2313,57.6431,-0.0000,-0.0000,-0.0000,0.0000,0.9264,1.1757,1.9584,1.0000
-3.9354,7.4152,-1.2979,-0.0307,-0.0924,0.1458,42.5507,29.5914,59.0805,-0.0000,-0.0000,-0.0000,0.0000,0.8208,1.1666,2.0450,1.0000
-2.5304,7.8354,-1.3385,0.2058,-0.0679,0.1043,43.8889,23.5031,56.9885,-0.0000,-0.0000,-0.0000,0.0000,0.6327,1.2285,2.1836,1.0000
-2.4315,8.1075,-2.6438,0.0023,-0.0093,-0.0385,46.4874,24.9619,55.8060,-0.0000,-0.0000,-0.0000,0.0000,0.5503,1.2060,2.2094,1.0000
-1.9183,7.8106,-3.4462,-0.0851,-0.0413,-0.0268,48.8068,24.2340,56.5109,-0.0000,-0.0000,-0.0000,0.0000,0.4747,1.2100,2.2693,1.0000
-4.0452,7.2436,-2.5424,0.4646,0.2442,0.0169,43.9941,38.4857,49.2767,-0.0000,-0.0000,-0.0000,0.0000,0.4118,1.0841,2.3235,1.0000
-2.6066,6.9092,-4.4035,0.1770,-0.0189,0.0563,40.3259,44.1147,47.3663,-0.0000,-0.0000,-0.0000,0.0000,0.2914,0.9929,2.5132,1.0000
-2.4546,7.4304,-2.2440,0.1237,-0.0104,0.0510,44.4031,31.4362,53.1174,-0.0000,-0.0000,-0.0000,0.0000,0.2179,1.1038,2.5284,1.0000
0.2668,8.3390,-4.1489,-0.1074,0.0653,-0.0140,40.7166,32.0618,54.9469,-0.0000,-0.0000,-0.0000,0.0000,0.1330,1.0795,2.7050,1.0000
-0.0812,9.6250,0.5936,-0.1170,-0.1606,0.5123,24.8199,-23.4192,48.8419,-0.0000,-0.0000,-0.0000,0.0000,1.9561,1.4486,0.8466,1.0000
0.1666,7.8517,4.6920,-0.2417,-0.3331,-0.0321,34.0378,-32.6828,27.7771,-0.0000,-0.0000,-0.0000,0.0000,2.3793,1.1092,0.2101,1.0000
-2.1358,7.8581,6.6006,0.8843,-0.2085,-0.4955,35.9207,-23.6526,16.2308,-0.0000,-0.0000,-0.0000,0.0000,2.1291,0.8779,0.1597,1.0000
-2.5001,8.8186,-3.4678,-0.4345,0.0109,0.8446,78.3936,22.7951,15.8340,-0.0000,-0.0000,-0.0000,0.0000,0.0277,1.1644,1.8677,1.0000
-4.5176,6.8514,-3.0420,0.0023,-0.1350,0.0851,55.2643,53.0243,-5.9692,-0.0000,-0.0000,-0.0000,0.0000,-0.4615,0.5423,2.4685,1.0000
-4.7020,5.2500,-6.5599,-0.1415,0.1899,-0.1461,48.0270,58.7219,-3.7842,-0.0000,-0.0000,-0.0000,0.0000,-0.2836,0.5323,2.4555,1.0000
-5.5024,4.9552,-6.4801,0.0428,0.0770,-0.2760,34.7641,65.9515,0.2609,-0.0000,-0.0000,-0.0000,0.0000,-0.0501,0.3921,2.5214,1.0000
-6.1046,4.8059,-5.5396,-0.3109,-0.1350,0.2960,40.9866,57.5104,24.1669,-0.0000,-0.0000,-0.0000,0.0000,0.0998,0.7242,2.5039,1.0000
-1.0353,8.9283,0.7560,-0.1799,0.5926,0.4089,47.0490,-10.7147,34.3460,-0.0000,-0.0000,-0.0000,0.0000,1.5430,1.5037,0.7879,1.0000
-1.9443,7.6989,-1.7384,-0.3375,-0.0008,0.0350,47.9523,-1.8799,40.3458,-0.0000,-0.0000,-0.0000,0.0000,0.7993,1.3595,1.6073,1.0000
-2.7938,7.4822,-0.6127,-0.1149,0.0141,0.0989,52.3697,8.8028,39.9002,-0.0000,-0.0000,-0.0000,0.0000,0.6050,1.2844,1.8137,1.0000
-2.7559,8.3418,-0.6809,0.1759,0.0397,-0.1184,52.8412,14.0091,42.3264,-0.0000,-0.0000,-0.0000,0.0000,0.4747,1.2074,1.9769,1.0000
-2.1657,8.2823,0.5249,0.2803,-0.0455,0.0446,52.8229,11.3373,40.7318,-0.0000,-0.0000,-0.0000,0.0000,0.5875,1.2438,1.8710,1.0000
-1.7216,7.3905,0.3178,0.1749,0.0088,0.0244,51.0101,3.0960,40.4297,-0.0000,-0.0000,-0.0000,0.0000,0.7743,1.3184,1.6485,1.0000
-2.9187,7.8825,-4.9662,-0.0542,0.0322,0.0872,53.9673,32.1716,44.6182,-0.0000,-0.0000,-0.0000,0.0000,-0.0216,1.0405,2.5700,1.0000
-2.6302,7.8086,-4.2531,0.0332,0.0173,-0.0555,49.7879,33.5114,45.0760,-0.0000,-0.0000,-0.0000,0.0000,0.0248,1.0071,2.6192,1.0000
-2.4155,7.1215,-4.2778,-0.0243,0.0205,0.0286,49.3607,37.0148,45.9625,-0.0000,-0.0000,-0.0000,0.0000,0.0423,0.9863,2.6025,1.0000
-2.2782,7.3258,-3.4518,-0.1692,-0.0370,0.0318,49.5438,33.0582,48.6389,-0.0000,-0.0000,-0.0000,0.0000,0.0321,1.0253,2.6220,1.0000
-1.1075,9.0911,-4.2886,0.0204,-0.1755,-0.1471,49.2432,30.9448,49.5316,-0.0000,-0.0000,-0.0000,0.0000,0.0281,1.0483,2.6256,1.0000
-2.9698,7.8513,-3.9778,-0.1064,0.0631,0.0435,51.0269,33.0261,49.6292,-0.0000,-0.0000,-0.0000,0.0000,0.0669,1.0481,2.5804,1.0000
-2.1414,7.7644,-3.8441,0.0620,-0.0306,-0.0960,48.0942,34.3277,47.3587,-0.0000,-0.0000,-0.0000,0.0000,0.0829,1.0214,2.5684,1.0000
-3.4769,7.2009,-4.8572,-0.1053,-0.0221,-0.0619,48.6847,39.4348,43.2434,-0.0000,-0.0000,-0.0000,0.0000,0.1167,0.9583,2.5411,1.0000
-3.0049,6.9152,-5.0085,-0.0275,-0.0871,-0.1227,45.4453,43.1183,42.7887,-0.0000,-0.0000,-0.0000,0.0000,0.0504,0.9283,2.6289,1.0000
-3.0931,6.9591,-4.3943,0.2185,0.0056,0.0020,47.4014,41.8472,43.2205,-0.0000,-0.0000,-0.0000,0.0000,0.0972,0.9204,2.5744,1.0000
-3.0723,7.2185,-3.2100,0.1610,-0.0413,0.0308,49.2416,34.7076,46.4584,-0.0000,-0.0000,-0.0000,0.0000,0.1027,0.9847,2.5360,1.0000
-3.1852,6.9699,-4.5583,-0.0659,0.0258,0.0126,46.8018,41.5756,43.2632,-0.0000,-0.0000,-0.0000,0.0000,0.1057,0.9344,2.5408,1.0000
-2.7778,6.6834,-4.7810,0.1813,-0.0082,-0.0406,45.9427,41.7191,42.8848,-0.0000,-0.0000,-0.0000,0.0000,0.0902,0.9405,2.5591,1.0000
-3.4382,6.0940,-4.6952,0.0332,0.0983,-0.0630,45.2057,47.0581,38.5849,-0.0000,-0.0000,-0.0000,0.0000,0.0829,0.8555,2.5750,1.0000
-2.1725,7.0337,-4.6661,-0.2598,0.2027,0.1831,44.0292,37.2116,46.0373,-0.0000,-0.0000,-0.0000,0.0000,0.0409,0.8680,2.6847,1.0000
-1.1629,7.1319,-4.5548,-1.4795,0.2922,0.4526,49.5300,13.3682,59.7748,-0.0000,-0.0000,-0.0000,0.0000,0.1027,1.2827,2.6428,1.0000
-0.5165,1.1540,6.0527,-2.8697,2.7540,0.2257,-42.8070,13.3911,-7.2815,-0.0000,-0.0000,-0.0000,0.0000,-1.3313,0.2738,0.3160,1.0000
-4.1904,2.0235,7.5160,-0.0744,-0.0573,0.0862,-36.2106,-16.1102,-7.5256,-0.0000,-0.0000,-0.0000,0.0000,-2.0471,0.3558,0.3975,1.0000
2.4655,2.3794,9.8907,2.6750,-1.5657,-0.9567,-40.5319,-10.3195,22.6273,-0.0000,-0.0000,-0.0000,0.0000,-1.8419,0.3604,-0.2276,1.0000
-10.2625,1.5881,-2.4175,-0.2161,-0.0413,0.1170,-10.4584,5.4047,73.4558,-0.0000,-0.0000,-0.0000,1.0000,1.0408,0.3718,1.8410,1.0000
-9.9297,1.5913,-0.1494,0.2303,-0.2735,-0.4113,6.3766,2.2690,69.6548,-0.0000,-0.0000,-0.0000,1.0000,1.0746,0.2942,1.6095,1.0000
-10.1612,1.5697,-1.6538,0.0204,0.0514,-0.0385,-3.1143,4.7043,66.5680,-0.0000,-0.0000,-0.0000,1.0000,1.0131,0.2789,1.6580,1.0000
-9.7521,1.5785,-0.4323,0.2835,-0.1734,-0.1237,0.6638,4.2709,65.7837,-0.0000,-0.0000,-0.0000,1.0000,0.9195,0.2446,1.6423,1.0000
-10.1033,2.3802,-1.9275,-0.1820,0.1760,0.1362,-4.7989,6.9061,65.7211,-0.0000,-0.0000,-0.0000,1.0000,0.8003,0.2458,1.7765,1.0000
-10.6149,2.0163,-1.1035,-0.2310,0.2975,0.0499,-0.3143,5.6717,66.0614,-0.0000,-0.0000,-0.0000,1.0000,0.8206,0.2406,1.7150,1.0000
-10.4277,1.5837,-0.7057,0.0534,-0.0296,-0.0150,1.1765,5.5389,66.9876,-0.0000,-0.0000,-0.0000,1.0000,0.8475,0.1888,1.6563,1.0000
-9.4441,1.5091,0.2480,0.0662,-0.0317,-0.0055,13.3560,4.6387,66.4642,-0.0000,-0.0000,-0.0000,1.0000,0.8222,0.1450,1.5774,1.0000
-10.6444,0.5698,-0.8258,0.0556,-0.0402,0.0638,8.2077,6.4102,63.1729,-0.0000,-0.0000,-0.0000,1.0000,0.7698,0.1320,1.6011,1.0000
-10.7964,2.1811,-1.2919,0.0524,0.2709,0.3908,5.2750,6.3568,59.5230,-0.0000,-0.0000,-0.0000,1.0000,0.6463,0.2313,1.6204,1.0000
-9.2729,2.3718,-1.3561,0.0311,-0.0860,-0.2366,1.1353,10.4950,59.5276,-0.0000,-0.0000,-0.0000,1.0000,0.5542,0.2465,1.6880,1.0000
-9.8244,1.5745,-0.3505,-0.0424,0.0354,0.0063,8.1192,10.7056,59.5322,-0.0000,-0.0000,-0.0000,1.0000,0.5485,0.1529,1.6074,1.0000
-9.9848,1.3814,-0.9204,0.0268,0.1441,0.1170,3.1387,11.3953,59.7839,-0.0000,-0.0000,-0.0000,1.0000,0.5205,0.1276,1.6576,1.0000
-10.4309,0.8000,-0.2364,0.0055,-0.0679,0.0201,11.3068,12.1948,59.1995,-0.0000,-0.0000,-0.0000,1.0000,0.5123,0.1067,1.5680,1.0000
-10.6077,0.5666,-0.5181,0.0822,-0.0743,0.0968,9.3674,14.1800,57.0602,-0.0000,-0.0000,-0.0000,1.0000,0.4513,0.0843,1.5837,1.0000
-10.2597,1.0386,-0.9882,0.1120,0.0834,-0.0726,6.4438,15.2802,54.6326,-0.0000,-0.0000,-0.0000,1.0000,0.3669,0.1075,1.6132,1.0000
-9.6348,0.7170,-0.5776,0.0843,-0.0967,-0.1120,12.7319,20.3461,51.4862,-0.0000,-0.0000,-0.0000,1.0000,0.2186,0.1045,1.5710,1.0000
-10.0363,0.7609,-1.7707,0.1312,-0.0562,-0.0481,6.8542,18.7408,44.8303,-0.0000,-0.0000,-0.0000,1.0000,0.1354,0.0887,1.6156,1.0000
-9.9074,0.7605,-2.4447,0.1259,-0.0232,-0.0310,4.9530,13.9084,39.8758,-0.0000,-0.0000,-0.0000,1.0000,0.0070,0.0818,1.6339,1.0000
-10.0981,0.8850,-2.1083,0.2377,-0.0636,-0.0087,7.6309,12.7731,36.0046,-0.0000,-0.0000,-0.0000,1.0000,-0.1772,0.0794,1.6479,1.0000
-9.8108,1.2585,-1.6658,0.0502,0.1100,-0.0140,7.6920,5.6595,30.9601,-0.0000,-0.0000,-0.0000,1.0000,-0.2890,0.1108,1.6141,1.0000
-10.2258,1.2980,-0.3027,0.0289,0.0333,0.0968,8.3374,4.5685,29.3488,-0.0000,-0.0000,-0.0000,1.0000,-0.3931,0.1001,1.6059,1.0000
-10.3164,1.2553,-0.7336,0.0002,0.0525,0.0403,8.2153,2.4765,27.4170,-0.0000,-0.0000,-0.0000,1.0000,-0.4553,0.1075,1.5994,1.0000
-10.2717,1.3391,-2.0181,-0.0904,0.0440,0.1959,1.2634,1.3779,23.5825,-0.0000,-0.0000,-0.0000,1.0000,-0.5378,0.1320,1.6534,1.0000
-10.1169,1.1583,-1.8058,0.1589,-0.1638,-0.0662,-0.2670,-3.7766,22.9797,-0.0000,-0.0000,-0.0000,1.0000,-0.6394,0.1258,1.6595,1.0000
-9.6560,1.8523,-0.5305,0.0587,-0.1137,-0.1471,3.5614,-10.8215,21.9070,-0.0000,-0.0000,-0.0000,1.0000,-0.7090,0.1808,1.6207,1.0000
-9.3499,1.0339,-1.0939,-0.0936,-0.0988,-0.0140,1.4908,-12.1094,22.1481,-0.0000,-0.0000,-0.0000,1.0000,-0.7943,0.1620,1.6533,1.0000
-9.9967,1.6124,-1.5836,0.2580,-0.0817,-0.0449,-0.7462,-8.8669,18.3426,-0.0000,-0.0000,-0.0000,1.0000,-0.7506,0.1819,1.6816,1.0000
-9.4102,1.9556,-0.5640,-0.0158,-0.0317,-0.0747,-1.9485,-9.3430,19.2780,-0.0000,-0.0000,-0.0000,1.0000,-0.7005,0.1970,1.6480,1.0000
-9.8012,3.0885,-0.4395,0.0577,-0.0093,-0.2175,-2.2614,-10.9314,16.7633,-0.0000,-0.0000,-0.0000,1.0000,-0.6630,0.2409,1.6208,1.0000
-9.5634,1.7553,-1.3617,0.1355,-0.0402,-0.0364,0.5905,-12.0483,18.7103,-0.0000,-0.0000,-0.0000,1.0000,-0.6966,0.1743,1.6211,1.0000
-9.7733,1.9077,-0.6099,-0.0275,0.1601,0.0553,0.3418,-14.2838,18.4845,-0.0000,-0.0000,-0.0000,1.0000,-0.7351,0.1975,1.6449,1.0000
-9.7976,1.8710,-0.5668,-0.0169,0.0088,0.0915,-1.9089,-15.7532,17.9184,-0.0000,-0.0000,-0.0000,1.0000,-0.7352,0.2064,1.6684,1.0000
-9.7908,2.2808,-0.4248,-0.0712,0.0312,0.0862,-2.5574,-14.3875,19.8227,-0.0000,-0.0000,-0.0000,1.0000,-0.7358,0.2124,1.6688,1.0000
-10.3459,2.7908,-0.6275,-0.1223,0.0344,0.0915,-1.9714,-13.4949,19.9722,-0.0000,-0.0000,-0.0000,1.0000,-0.6762,0.2173,1.6593,1.0000
-10.3248,1.6671,0.2161,-0.0392,-0.1851,0.0350,4.2023,-11.6394,21.6965,-0.0000,-0.0000,-0.0000,1.0000,-0.6945,0.1585,1.6103,1.0000
-9.6979,1.8862,-1.0197,0.0236,0.2112,0.0478,2.0279,-9.4818,21.1105,-0.0000,-0.0000,-0.0000,1.0000,-0.6770,0.1640,1.6076,1.0000
-10.1097,1.2410,-1.1610,0.0513,-0.0338,-0.1440,0.2548,-10.2615,23.0759,-0.0000,-0.0000,-0.0000,1.0000,-0.7281,0.1520,1.6529,1.0000
-10.0255,1.5314,-0.7316,-0.0158,0.0663,0.0616,1.9669,-11.8958,23.9868,-0.0000,-0.0000,-0.0000,1.0000,-0.7343,0.1556,1.6333,1.0000
-9.9261,1.6061,0.2568,-0.0733,0.0440,0.0009,3.9459,-13.0478,22.2046,-0.0000,-0.0000,-0.0000,1.0000,-0.7087,0.1598,1.5629,1.0000
-8.9964,2.0047,-0.4280,-0.0776,0.0961,-0.0790,-0.2701,-9.9396,23.7961,-0.0000,-0.0000,-0.0000,1.0000,-0.7442,0.1935,1.5956,1.0000
-10.3080,1.6703,-0.3015,0.0204,0.1377,-0.1045,1.2665,-10.4279,20.1691,-0.0000,-0.0000,-0.0000,1.0000,-0.7465,0.1546,1.5932,1.0000
-10.0841,1.8227,0.0002,-0.0009,0.0312,-0.0055,4.5227,-15.1611,21.2265,-0.0000,-0.0000,-0.0000,1.0000,-0.7349,0.1570,1.5681,1.0000
-10.3104,1.8351,0.4088,-0.0499,0.0450,0.0840,4.2480,-16.1560,21.0068,-0.0000,-0.0000,-0.0000,1.0000,-0.7226,0.1573,1.5503,1.0000
-10.1791,1.4780,0.2133,0.0225,-0.0317,0.0542,4.2023,-14.2593,21.0342,-0.0000,-0.0000,-0.0000,1.0000,-0.7349,0.1317,1.5807,1.0000
-10.0698,1.0450,0.0233,0.0811,-0.0594,-0.0641,3.7262,-12.1857,23.2803,-0.0000,-0.0000,-0.0000,1.0000,-0.7393,0.1414,1.5835,1.0000
-10.7262,1.1512,0.4076,0.0609,0.1430,0.1075,5.7175,-12.4786,21.4355,-0.0000,-0.0000,-0.0000,1.0000,-0.7616,0.1159,1.5660,1.0000
-10.2501,1.8415,-0.7432,-0.0478,0.0205,0.0233,2.9785,-13.8062,17.4484,-0.0000,-0.0000,-0.0000,1.0000,-0.7436,0.1706,1.6041,1.0000
-10.2382,1.7218,-0.0860,-0.2161,0.0685,0.2619,4.5914,-12.5320,21.0373,-0.0000,-0.0000,-0.0000,1.0000,-0.7475,0.1519,1.5970,1.0000
-10.8323,2.0594,-0.0628,-0.1234,0.0067,0.3684,7.5165,-13.9328,20.6635,-0.0000,-0.0000,-0.0000,1.0000,-0.7625,0.1782,1.5467,1.0000
-10.2789,2.0961,0.0541,0.0545,0.0748,-0.0459,6.5292,-15.5228,19.7754,-0.0000,-0.0000,-0.0000,1.0000,-0.7493,0.2039,1.5363,1.0000
-9.7896,2.9632,-0.0497,0.2271,0.0237,0.1053,5.6366,-15.3671,20.4254,-0.0000,-0.0000,-0.0000,1.0000,-0.7418,0.1815,1.5397,1.0000
-9.2948,1.6196,-0.1391,0.1664,-0.0732,-0.2238,9.5932,-15.0909,25.9644,-0.0000,-0.0000,-0.0000,1.0000,-0.8133,0.1631,1.5375,1.0000
-8.4716,2.6120,-0.4830,0.2888,-0.1222,-0.0949,10.4218,-15.6189,21.5912,-0.0000,-0.0000,-0.0000,1.0000,-0.8504,0.1543,1.5167,1.0000
-10.1384,2.8423,-1.2053,0.0747,0.0354,0.0829,2.1133,-18.2571,18.5532,-0.0000,-0.0000,-0.0000,1.0000,-0.9003,0.1892,1.4894,1.0000
-9.0099,0.6376,0.7400,0.3400,0.0248,-0.2238,7.4768,-25.6912,16.6687,-0.0000,-0.0000,-0.0000,1.0000,-1.0596,0.1303,1.4243,1.0000
-10.4696,2.4807,-0.4818,0.1248,0.1473,0.2108,-6.1829,-33.0414,14.2075,-0.0000,-0.0000,-0.0000,1.0000,-1.1885,0.2254,1.5468,1.0000
-8.6265,2.6451,2.2236,-0.0765,-0.0540,-0.1163,-4.6310,-39.5233,13.0127,-0.0000,-0.0000,-0.0000,1.0000,-1.2091,0.2752,1.5240,1.0000
-9.8148,2.0266,1.7025,-0.0190,-0.1105,-0.0278,-3.3722,-33.2123,14.2441,-0.0000,-0.0000,-0.0000,1.0000,-1.1240,0.2540,1.5517,1.0000
-8.4712,2.2800,2.2172,-0.0339,0.1398,-0.0449,5.8853,-27.7725,16.9052,-0.0000,-0.0000,-0.0000,1.0000,-0.9462,0.2311,1.5146,1.0000
-9.6177,2.2633,2.2368,-0.1937,0.1089,-0.0609,9.8312,-20.9351,19.5251,-0.0000,-0.0000,-0.0000,1.0000,-0.8799,0.2524,1.4687,1.0000
-10.2481,2.7956,0.3262,-0.2779,0.0546,-0.0939,9.7977,-16.4963,19.5801,-0.0000,-0.0000,-0.0000,1.0000,-0.7393,0.2145,1.4231,1.0000
-9.9916,1.3291,-0.4675,0.3975,-0.1275,-0.0012,2.4628,-17.3889,18.8797,-0.0000,-0.0000,-0.0000,1.0000,-0.8628,0.2666,1.4767,1.0000
-0.5309,4.1379,9.2534,0.1706,-0.7539,-0.3112,17.0044,3.4531,2.4796,-0.0000,-0.0000,-0.0000,0.0000,1.9016,0.7697,0.0769,1.0000
-4.8173,5.4348,-3.9187,-0.5090,0.5723,1.2302,12.8235,6.0074,-10.9253,-0.0000,-0.0000,-0.0000,0.0000,-2.1792,1.0010,2.1484,1.0000
-3.7862,4.6978,-5.0472,0.4774,0.2858,-0.0076,15.5762,5.4749,-11.9522,-0.0000,-0.0000,-0.0000,0.0000,-2.2011,0.8442,2.3656,1.0000
-2.8987,7.4244,-3.4127,-0.1543,-0.0956,0.0403,14.7797,3.7933,-8.9081,-0.0000,-0.0000,-0.0000,0.0000,-2.1985,0.9434,2.3837,1.0000
-3.8002,6.8314,-3.9163,0.0098,0.0301,0.0798,17.7353,2.3819,-9.6512,-0.0000,-0.0000,-0.0000,0.0000,-2.2267,0.9616,2.4189,1.0000
-2.2080,8.5209,-3.1075,-0.2598,-0.2064,0.0403,17.7277,-0.7538,-4.8767,-0.0000,-0.0000,-0.0000,0.0000,-2.2378,1.1195,2.4523,1.0000
-2.2503,7.0413,-5.0416,0.1056,0.1910,-0.0353,17.0959,-0.7965,-5.3558,-0.0000,-0.0000,-0.0000,0.0000,-2.2731,1.1019,2.4657,1.0000
-2.2910,7.4635,-3.1454,-0.5431,-0.2170,0.3099,16.5100,-3.2135,-4.2221,-0.0000,-0.0000,-0.0000,0.0000,-2.2544,1.1289,2.4458,1.0000
-0.4886,8.1147,0.3769,-0.5378,-0.1968,0.3280,-8.5190,-5.9677,-13.6108,-0.0000,-0.0000,-0.0000,0.0000,-0.3063,1.4132,0.1896,1.0000
0.7097,8.3741,1.5145,0.0587,-0.0828,-0.0332,-21.0831,-3.0609,-9.3948,-0.0000,-0.0000,-0.0000,0.0000,-0.1125,1.3116,-0.1749,1.0000
-1.0536,7.9611,-0.9591,0.9131,0.2485,-0.4635,-5.6763,-7.5409,-5.8899,-0.0000,-0.0000,-0.0000,0.0000,-2.3145,1.3931,1.9941,1.0000
-4.0950,6.2835,-4.9821,0.3421,0.1846,-0.2324,2.9205,-2.0325,-6.5979,-0.0000,-0.0000,-0.0000,0.0000,-2.6281,0.7167,2.5286,1.0000
-4.5843,4.0182,-7.5715,0.4433,0.3231,-0.5029,7.1075,-5.2826,-11.3815,-0.0000,-0.0000,-0.0000,0.0000,-2.5041,0.2933,2.6474,1.0000
-4.3420,0.0654,-8.8579,-0.0595,-0.0594,-0.1333,13.4964,-8.0566,-7.9422,-0.0000,-0.0000,-0.0000,0.0000,-2.3013,0.0044,2.7763,1.0000
-11.2669,3.9620,-4.8600,-0.4686,-0.0892,1.0939,-5.0690,5.5679,-15.8127,-0.0000,-0.0000,-0.0000,0.0000,-1.9348,0.5032,2.1227,1.0000
-4.1074,4.4161,-2.8293,-3.6920,3.8299,1.0353,21.6995,-0.1175,6.2057,-0.0000,-0.0000,-0.0000,0.0000,-2.3488,1.2922,2.9705,1.0000
-2.5149,4.9164,6.8209,-1.1237,0.3316,0.9490,18.6890,-6.8741,-9.3140,-0.0000,-0.0000,-0.0000,0.0000,1.5563,0.8560,-0.0477,1.0000
-2.6517,4.8737,-8.6488,0.5669,-0.1744,-1.3157,-5.5359,1.1444,-13.6353,-0.0000,-0.0000,-0.0000,0.0000,-2.1852,1.1404,2.8098,1.0000
-5.0539,2.3159,9.6923,2.5248,1.2861,-0.6606,-15.1886,12.9150,-4.4144,-0.0000,-0.0000,-0.0000,0.0000,-0.5344,0.8783,0.8073,1.0000
1.8071,9.1809,-2.6793,1.5278,-1.7457,-0.9812,7.0587,11.2183,-9.7672,-0.0000,-0.0000,-0.0000,0.0000,-1.6470,1.3099,2.4057,1.0000
2.5213,7.7348,7.9545,1.7451,-0.6527,-1.1091,6.9397,-36.8134,4.5624,-0.0000,-0.0000,-0.0000,0.0000,1.1921,0.9555,-0.4614,1.0000
3.4666,6.3805,1.8988,-2.2603,-1.5348,-1.4947,4.1061,-18.7866,7.9117,-0.0000,-0.0000,-0.0000,0.0000,1.7878,1.2226,-1.2049,1.0000
-0.1159,7.5217,5.7307,2.3832,-0.7593,-0.3197,-14.2487,-6.9824,-10.7132,-0.0000,-0.0000,-0.0000,0.0000,-0.3197,1.1181,0.1592,1.0000
0.7041,8.1259,-2.5636,0.1578,-0.1606,-0.0843,-1.4374,0.4150,6.4651,-0.0000,-0.0000,-0.0000,0.0000,-2.8767,1.3252,2.9705,1.0000
-0.4040,8.9251,1.2687,-0.4323,0.0376,0.0670,-8.5327,-14.8819,5.0980,-0.0000,-0.0000,-0.0000,0.0000,2.7079,1.5465,-2.8696,1.0000
-0.4866,7.6602,-0.1514,-0.0041,0.0812,0.1575,-15.2130,-17.9230,3.1876,-0.0000,-0.0000,-0.0000,0.0000,-0.4491,1.4469,0.1399,1.0000
-2.5803,12.1808,12.0646,-0.9863,1.6195,1.8971,-3.1784,29.6799,-23.2590,-0.0000,-0.0000,-0.0000,0.0000,0.4612,1.1090,0.0291,1.0000
-1.0943,4.6387,6.1210,0.0822,0.0567,0.2875,3.1097,27.5345,-26.8158,-0.0000,-0.0000,-0.0000,0.0000,1.0920,0.7969,-0.1752,1.0000
-0.0684,4.3055,7.6050,1.2444,0.3135,0.0585,2.5955,33.5648,-24.0540,-0.0000,-0.0000,-0.0000,0.0000,0.9231,0.5661,-0.0600,1.0000
-0.7883,5.6926,7.3137,0.0790,-0.1446,0.1202,-0.4486,28.1052,-27.4979,-0.0000,-0.0000,-0.0000,0.0000,0.9243,0.7191,-0.0519,1.0000
1.2341,6.3685,8.1557,1.0090,-0.6740,0.1959,3.8849,27.2263,-24.0967,-0.0000,-0.0000,-0.0000,0.0000,0.9407,0.7589,0.0307,1.0000
0.3083,5.7903,6.6310,0.0960,-0.0157,-0.0204,2.5650,25.5432,-25.8209,-0.0000,-0.0000,-0.0000,0.0000,0.9622,0.8250,-0.0607,1.0000
0.3458,5.2417,5.7519,0.2377,-0.1712,0.0222,1.8982,25.7248,-26.4984,-0.0000,-0.0000,-0.0000,0.0000,0.9535,0.6724,-0.0509,1.0000
-1.2791,5.3765,7.7834,0.0811,-0.3662,-0.0619,-0.2747,24.0005,-23.9365,-0.0000,-0.0000,-0.0000,0.0000,0.8172,0.7262,0.0493,1.0000
-0.3972,6.0816,6.7487,-0.4110,-0.1467,0.0627,-4.2496,22.1481,-25.1938,-0.0000,-0.0000,-0.0000,0.0000,0.7830,0.7695,0.0413,1.0000
-1.2344,5.3334,6.8257,-0.2204,-0.1499,-0.1514,-5.3192,24.8947,-26.5976,-0.0000,-0.0000,-0.0000,0.0000,0.7148,0.6794,0.0849,1.0000
-0.1913,5.6387,7.1704,-0.1181,0.0450,-0.1163,-3.5522,23.2849,-28.5233,-0.0000,-0.0000,-0.0000,0.0000,0.8269,0.7555,0.0287,1.0000
-1.1869,7.5086,5.8636,-1.4305,-1.0692,0.4260,-3.5446,20.0592,-22.3465,-0.0000,-0.0000,-0.0000,0.0000,0.6330,0.7327,0.2009,1.0000
-3.2383,8.1933,2.3413,0.2857,0.2155,-0.0193,-5.1102,6.2546,21.5134,-0.0000,-0.0000,-0.0000,0.0000,-1.2186,1.2504,0.6785,1.0000
0.1287,7.9132,4.9985,-2.1229,2.3950,2.4596,-13.9709,15.4922,-17.2607,-0.0000,-0.0000,-0.0000,0.0000,0.6452,1.0018,-0.0209,1.0000
0.5006,6.0748,6.8839,-0.3972,0.0077,-0.2196,5.7587,30.9479,-25.5295,-0.0000,-0.0000,-0.0000,0.0000,1.0381,0.7457,-0.0219,1.0000
-1.0780,5.5984,6.3077,-0.3759,0.5318,0.1746,1.3992,25.4318,-25.2792,-0.0000,-0.0000,-0.0000,0.0000,0.7638,0.7822,0.1821,1.0000
-0.5788,6.1495,5.4550,0.0321,-0.0668,-0.1173,-0.1968,23.6649,-24.9969,-0.0000,-0.0000,-0.0000,0.0000,0.8031,0.7890,0.1380,1.0000
0.2456,6.9543,5.4718,-0.4473,-0.0306,0.3024,2.3926,23.9578,-22.2733,-0.0000,-0.0000,-0.0000,0.0000,0.8912,0.8105,0.0627,1.0000
-4.8720,4.4791,0.4268,-2.5096,0.8280,-0.8321,-16.6550,-3.6057,4.2984,-0.0000,-0.0000,-0.0000,0.0000,-0.3155,1.2752,0.2890,1.0000
0.5677,8.0916,-0.6051,-0.6166,0.4903,0.0840,-11.2274,-31.8451,-5.2887,-0.0000,-0.0000,-0.0000,0.0000,-0.2240,1.0513,-0.0561,1.0000
0.0673,7.9176,3.0935,-0.0627,-0.0817,0.0382,-18.5135,-27.7252,-3.1952,-0.0000,-0.0000,-0.0000,0.0000,-0.1290,1.1651,-0.2004,1.0000
-0.0580,8.1829,2.3350,-0.0392,-0.1201,-0.0619,-19.9280,-30.2231,5.6442,-0.0000,-0.0000,-0.0000,0.0000,-0.1470,1.2374,-0.2266,1.0000
-1.1203,8.2089,-0.1654,-0.2587,0.0930,0.2161,-11.2488,-14.5966,32.7744,-0.0000,-0.0000,-0.0000,0.0000,-2.2408,1.5276,1.5706,1.0000
-1.8880,8.1343,-1.2875,-0.0020,0.2005,0.1245,-9.5718,-3.2944,31.1615,-0.0000,-0.0000,-0.0000,0.0000,-2.8157,1.4331,2.0951,1.0000
-1.6761,8.4575,-0.5345,0.6031,0.2101,-0.0949,-8.8165,1.6800,24.5102,-0.0000,-0.0000,-0.0000,0.0000,-2.9658,1.3847,2.1205,1.0000
-1.8381,8.1035,-3.1406,0.0939,-0.0210,-0.2462,-8.7555,5.8563,16.1850,-0.0000,-0.0000,-0.0000,0.0000,2.9503,1.1394,2.5930,1.0000
-3.8089,4.0250,-7.2622,0.0460,0.6107,0.1852,-6.1829,1.6876,1.5686,-0.0000,-0.0000,-0.0000,0.0000,3.0540,0.7818,2.6914,1.0000
-1.7914,4.7852,-7.8791,0.2292,0.1207,-0.2441,0.0549,-6.1569,-3.4729,-0.0000,-0.0000,-0.0000,0.0000,-3.1191,0.5377,2.9119,1.0000
-0.2523,4.9428,-6.8955,-1.1855,-0.1190,0.2417,3.0121,-5.4810,-1.1078,-0.0000,-0.0000,-0.0000,0.0000,-3.0092,0.5659,2.9751,1.0000
2.5832,8.5117,4.1661,0.4252,1.4277,0.5623,-10.4965,-13.7772,-18.6813,-0.0000,-0.0000,-0.0000,0.0000,0.0766,1.3305,-0.3696,1.0000
6.1845,4.9711,-0.1949,0.0396,-0.4461,-0.1429,7.4661,-5.6702,-28.4027,-0.0000,-0.0000,-0.0000,0.0000,3.0322,0.7518,-1.5599,1.0000
5.4319,5.6040,-1.3757,-0.1586,-0.4908,0.0585,-3.2166,2.2583,-33.6197,-0.0000,-0.0000,-0.0000,0.0000,2.7801,0.8790,-1.7670,1.0000
6.8249,5.6459,-0.2931,-0.3716,-0.5973,-0.0928,-17.4286,10.0601,-39.5554,-0.0000,-0.0000,-0.0000,0.0000,2.2550,0.9390,-1.7563,1.0000
6.1414,5.9372,0.7436,-0.3322,-0.7699,0.0148,-39.8499,20.5353,-37.0132,-0.0000,-0.0000,-0.0000,0.0000,1.5891,0.9695,-1.8449,1.0000
3.8553,7.4104,-0.6267,-0.4824,-0.7561,0.1714,-52.7527,28.1006,-15.3275,-0.0000,-0.0000,-0.0000,0.0000,0.8800,1.0190,-1.9209,1.0000
5.2539,8.1339,-0.7887,-0.3961,-1.0128,-0.4742,-50.3159,25.8820,12.2223,-0.0000,-0.0000,-0.0000,0.0000,0.2029,1.1216,-1.9253,1.0000
-4.5874,11.3628,-0.4571,1.0218,-0.6005,-0.1333,58.5114,3.9078,47.2366,-0.0000,-0.0000,-0.0000,0.0000,0.8508,1.3151,1.6321,1.0000
3.2480,7.2404,6.6413,-0.8957,-0.5473,0.0595,-40.0620,-0.6744,32.3257,-0.0000,-0.0000,-0.0000,0.0000,-1.6952,0.9314,-0.4458,1.0000
-0.9120,6.6275,3.2775,-0.4813,-0.1339,0.0521,-25.6256,-17.1219,38.2355,-0.0000,-0.0000,-0.0000,0.0000,-2.5183,1.1476,-0.1291,1.0000
0.7959,7.8154,3.9068,-0.5197,0.3976,-0.2963,-28.9627,-16.5756,38.6719,-0.0000,-0.0000,-0.0000,0.0000,-2.3649,1.1151,-0.2391,1.0000
-0.7152,5.1710,6.1892,-0.4430,-0.4184,-0.2249,-32.0313,-24.7971,25.0198,-0.0000,-0.0000,-0.0000,0.0000,-2.3750,0.8054,-0.1028,1.0000
-0.2328,6.0293,6.2519,-0.0499,0.0418,-0.1684,-33.7677,-20.3491,27.4734,-0.0000,-0.0000,-0.0000,0.0000,-2.3596,0.8827,-0.0304,1.0000
0.0800,6.1111,7.0511,0.1163,-0.1297,-0.3165,-32.9468,-25.6348,24.3759,-0.0000,-0.0000,-0.0000,0.0000,-2.3845,0.8067,0.0043,1.0000
0.3526,6.0916,6.8827,0.5051,0.1334,-0.1109,-31.3675,-22.9385,28.4088,-0.0000,-0.0000,-0.0000,0.0000,-2.4099,0.7943,0.0231,1.0000
0.5198,6.1906,6.1980,-0.3940,-0.2490,-0.0268,-31.6055,-23.2391,31.1264,-0.0000,-0.0000,-0.0000,0.0000,-2.4384,0.8383,0.0937,1.0000
-0.9231,6.1219,5.7782,-0.2076,-0.0817,0.0819,-29.6448,-20.0485,34.2972,-0.0000,-0.0000,-0.0000,0.0000,-2.4640,0.8587,0.0528,1.0000
-1.0261,5.7472,7.2291,-0.1319,0.0589,-0.0055,-28.6194,-23.0942,29.3793,-0.0000,-0.0000,-0.0000,0.0000,-2.4224,0.7682,0.0460,1.0000
-0.4008,5.6491,6.7040,0.3315,-0.0338,-0.0513,-29.2358,-18.1290,37.8967,-0.0000,-0.0000,-0.0000,0.0000,-2.4029,0.8425,0.0107,1.0000
-0.7032,5.9879,6.7076,0.5658,-0.3225,0.1351,-30.5130,-19.2383,30.6549,-0.0000,-0.0000,-0.0000,0.0000,-2.3882,0.7869,0.0117,1.0000
-0.7224,5.7831,6.6357,0.0587,0.2080,0.0350,-34.2163,-18.5043,30.2628,-0.0000,-0.0000,-0.0000,0.0000,-2.3040,0.7615,0.0014,1.0000
-0.3501,5.8454,6.1856,-0.1628,-0.0114,0.0340,-35.3821,-16.9571,28.1876,-0.0000,-0.0000,-0.0000,0.0000,-2.2492,0.7467,-0.0000,1.0000
-0.7655,6.0517,7.5958,0.5892,-0.1904,0.2076,-34.8160,-19.8044,28.2822,-0.0000,-0.0000,-0.0000,0.0000,-2.2937,0.8086,0.0943,1.0000
0.1810,6.4348,5.4738,-0.2672,-0.1350,0.0829,-35.7819,-19.0582,35.8139,-0.0000,-0.0000,-0.0000,0.0000,-2.3184,0.9105,0.0164,1.0000
0.7899,6.4870,5.4426,0.0204,-0.1052,-0.1045,-36.1938,-17.7414,30.4321,-0.0000,-0.0000,-0.0000,0.0000,-2.2984,0.8229,0.0635,1.0000
-0.1817,6.6079,5.5635,0.7288,-0.2554,-0.2036,-37.7792,-11.6425,30.5664,-0.0000,-0.0000,-0.0000,0.0000,-2.2827,0.8627,0.1506,1.0000
-0.7571,7.0006,4.3768,-0.1234,-0.1031,-0.0779,-35.0952,-17.6849,31.7825,-0.0000,-0.0000,-0.0000,0.0000,-2.3662,0.9545,0.1609,1.0000
-0.7611,5.6287,7.9378,-0.1575,-1.8586,1.3772,-34.7839,-22.8729,24.5178,-0.0000,-0.0000,-0.0000,0.0000,-2.2699,0.6549,-0.0560,1.0000
0.3199,6.6830,1.9319,0.6873,-0.1467,0.3056,53.2211,-12.6694,66.0309,-0.0000,-0.0000,-0.0000,0.0000,-2.4013,1.2939,-1.4011,1.0000
3.2113,9.0756,-0.8884,0.3293,-0.6485,-0.3250,42.6575,-11.6333,65.8936,-0.0000,-0.0000,-0.0000,0.0000,-2.3593,1.3048,-1.2724,1.0000
1.1878,7.8422,-2.8764,-0.0382,0.0173,-0.1482,54.3213,11.9598,54.3655,-0.0000,-0.0000,-0.0000,0.0000,-1.1326,1.3637,-2.6000,1.0000
0.9192,8.7468,-1.2093,-0.2587,0.0408,-0.0779,53.5522,2.1088,61.4410,-0.0000,-0.0000,-0.0000,0.0000,-1.4472,1.4139,-2.3288,1.0000
0.3131,7.7332,-2.0173,0.0055,-0.0636,-0.0641,56.4926,8.8043,56.0303,-0.0000,-0.0000,-0.0000,0.0000,-0.9423,1.3826,-2.8570,1.0000
-0.2747,7.7899,-2.2962,-0.2353,0.0503,0.0989,56.8497,8.2275,57.1899,-0.0000,-0.0000,-0.0000,0.0000,-0.9367,1.3647,-2.8760,1.0000
2.7999,5.9467,6.7614,1.2039,-0.6389,-0.2398,5.3589,-68.3197,58.5007,-0.0000,-0.0000,-0.0000,0.0000,-2.7276,0.8923,-0.7959,1.0000
1.6103,8.1730,-3.0017,-0.0084,-0.0967,-0.1450,63.5010,2.3682,40.9485,-0.0000,-0.0000,-0.0000,0.0000,-1.2976,1.1902,-2.7552,1.0000
-2.8604,7.1235,5.3465,0.5850,0.0440,-0.2270,22.2107,-41.6855,104.2892,-0.0000,-0.0000,-0.0000,0.0000,2.6084,1.1861,0.3349,1.0000
-2.2240,7.9595,1.4731,0.0598,0.0450,0.0936,54.8691,5.1331,82.6126,-0.0000,-0.0000,-0.0000,0.0000,1.9009,1.3583,0.7287,1.0000
-1.7128,7.6830,3.0791,0.1855,-0.3875,0.6401,-29.7546,-2.4292,74.4125,-0.0000,-0.0000,-0.0000,0.0000,-2.3464,1.3219,-0.1497,1.0000
0.7117,4.7991,7.0112,-0.3823,0.2027,0.4814,-38.9999,-5.0446,26.7288,-0.0000,-0.0000,-0.0000,0.0000,-1.9119,0.7024,-0.1871,1.0000
-0.4355,4.3622,8.1509,0.0950,0.1356,0.0286,-42.5812,-1.8631,22.0215,-0.0000,-0.0000,-0.0000,0.0000,-1.7528,0.6980,-0.1305,1.0000
-0.1502,6.1024,6.0683,0.3815,0.0866,-0.2025,-47.1100,6.9870,17.5430,-0.0000,-0.0000,-0.0000,0.0000,-1.5202,0.7103,-0.0892,1.0000
-2.5707,3.4600,3.3038,-0.5282,-0.6943,-0.0055,-21.3821,-19.8898,78.0365,-0.0000,-0.0000,-0.0000,0.0000,-2.1424,1.0926,-0.0198,1.0000
1.2309,8.8449,4.0743,0.7352,0.1611,0.6656,-25.5508,-8.2855,63.2401,-0.0000,-0.0000,-0.0000,0.0000,-1.6837,1.2114,-0.5346,1.0000
0.3255,6.7293,2.3996,-0.0414,-0.1648,0.2182,-33.5037,-8.9874,61.3892,-0.0000,-0.0000,-0.0000,0.0000,-1.5043,1.2142,-0.5115,1.0000
-4.1362,6.7193,-0.3709,-0.0052,-0.5079,-0.2004,-7.6904,6.4606,83.5236,-0.0000,-0.0000,-0.0000,0.0000,-2.9877,1.2402,0.7257,1.0000
-3.3321,7.3825,2.9842,-0.4590,-0.6655,-0.3517,21.3821,-8.1009,62.5244,-0.0000,-0.0000,-0.0000,0.0000,2.6263,1.0074,0.7561,1.0000
-3.5927,7.8813,2.8266,-0.0861,0.1665,-0.1866,22.0444,-7.8659,62.1323,-0.0000,-0.0000,-0.0000,0.0000,2.4321,0.9385,0.7737,1.0000
-5.6313,7.3633,1.6410,0.2761,-0.1606,-0.0747,24.4202,16.6092,66.2811,-0.0000,-0.0000,-0.0000,0.0000,2.0816,1.0286,1.1492,1.0000
-5.8771,7.8669,-0.0449,0.0896,0.7321,0.0787,15.3793,38.9084,65.5396,-0.0000,-0.0000,-0.0000,0.0000,1.7060,1.0387,1.5942,1.0000
-1.5141,7.5864,-0.5030,0.2132,0.6256,0.0403,-19.9463,18.5242,71.8323,-0.0000,-0.0000,-0.0000,0.0000,1.9546,1.3192,2.2376,1.0000
-5.1856,8.2875,6.1812,-0.9160,0.0525,-0.4667,-36.0046,-43.0725,85.2768,-0.0000,-0.0000,-0.0000,0.0000,3.0388,1.3543,1.2286,1.0000
1.0860,4.3367,8.4897,0.4881,-0.3097,-0.3368,-48.6343,19.8837,-3.6530,-0.0000,-0.0000,-0.0000,0.0000,-0.9964,0.7217,-0.0540,1.0000
-0.4978,6.3773,5.4789,0.4944,-0.2000,-0.1429,-50.4333,5.6992,-9.1049,-0.0000,-0.0000,-0.0000,0.0000,-1.3356,0.9191,0.2883,1.0000
-0.0991,6.6028,4.6809,0.3922,-0.2437,-0.4955,-51.9516,2.7756,-5.4077,-0.0000,-0.0000,-0.0000,0.0000,-1.6141,0.9754,0.4129,1.0000
0.0517,6.7875,4.6976,-0.1266,0.0887,0.0435,-52.4796,0.4852,6.6956,-0.0000,-0.0000,-0.0000,0.0000,-1.5900,0.8853,0.1571,1.0000
-0.8836,6.0884,6.3261,0.2175,-0.1521,-0.0758,-51.7700,-7.4295,15.8646,-0.0000,-0.0000,-0.0000,0.0000,-1.7016,0.8740,0.0340,1.0000
-0.4104,6.1738,6.3584,-0.1266,-0.0285,0.1884,-52.0752,-1.6434,12.0285,-0.0000,-0.0000,-0.0000,0.0000,-1.5205,0.8381,-0.0255,1.0000
-1.3768,5.9795,6.7163,0.0321,-0.1723,0.0020,-52.1240,5.4459,3.9246,-0.0000,-0.0000,-0.0000,0.0000,-1.3628,0.8759,0.0399,1.0000
-0.8916,6.7568,6.2814,0.3954,0.0461,0.0829,-52.9419,14.6637,0.3403,-0.0000,-0.0000,-0.0000,0.0000,-1.1656,0.9005,0.0533,1.0000
-0.7974,6.2013,6.8512,-0.4962,-0.3097,-0.1962,-52.8198,9.6863,0.3189,-0.0000,-0.0000,-0.0000,0.0000,-1.1699,0.8628,0.1009,1.0000
-0.6191,6.1423,6.2355,-0.0563,0.1835,-0.0076,-53.7262,8.6197,0.3418,-0.0000,-0.0000,-0.0000,0.0000,-1.1583,0.7871,0.1116,1.0000
-0.6135,6.0329,6.3780,0.0023,-0.0423,-0.0577,-53.5782,5.8365,-1.5533,-0.0000,-0.0000,-0.0000,0.0000,-1.1995,0.7973,0.1747,1.0000
-1.5037,6.4447,6.0963,-0.8542,0.0717,0.2417,-53.7155,5.0201,0.6943,-0.0000,-0.0000,-0.0000,0.0000,-1.2210,0.7713,0.1325,1.0000
-0.3525,5.6219,6.3636,-0.1639,0.0312,-0.0694,-54.0543,7.7988,1.4923,-0.0000,-0.0000,-0.0000,0.0000,-1.1590,0.7099,0.0905,1.0000
-0.2675,6.2105,6.1876,0.1919,0.0056,0.0648,-51.1292,11.8454,-4.9835,-0.0000,-0.0000,-0.0000,0.0000,-1.0361,0.8248,0.0876,1.0000
-1.2136,6.2365,6.8807,0.2132,0.1942,0.2108,-53.5599,11.3220,-3.4653,-0.0000,-0.0000,-0.0000,0.0000,-1.1198,0.8201,0.0998,1.0000
-0.1366,6.4567,4.4243,-0.6795,-0.2458,0.2822,-55.4855,12.6495,4.6432,-0.0000,-0.0000,-0.0000,0.0000,-1.0522,0.8756,-0.0188,1.0000
-0.6701,6.2273,7.2143,0.3922,-0.1020,0.1053,-52.0370,13.2004,-0.7828,-0.0000,-0.0000,-0.0000,0.0000,-0.9714,0.7822,0.0422,1.0000
-1.1063,5.9116,5.6952,0.0779,-0.0924,0.1170,-54.5319,12.7121,-2.1637,-0.0000,-0.0000,-0.0000,0.0000,-0.9732,0.7754,0.0809,1.0000
-1.1218,5.5058,7.2012,0.0896,0.1249,-0.0885,-52.7115,13.0966,-5.4703,-0.0000,-0.0000,-0.0000,0.0000,-0.8821,0.8269,0.0765,1.0000
-1.2587,6.5744,6.5152,0.0023,0.0258,-0.3186,-56.1020,13.8275,-8.2794,-0.0000,-0.0000,-0.0000,0.0000,-0.9226,0.8601,0.1797,1.0000
-1.4088,6.6742,6.8520,0.4316,-0.4099,-0.1312,-58.0795,6.5979,-1.7014,-0.0000,-0.0000,-0.0000,0.0000,-1.1476,0.8647,0.2618,1.0000
-0.2292,6.6271,3.9463,-0.3535,-0.4056,-0.1898,-57.3868,0.9247,10.8566,-0.0000,-0.0000,-0.0000,0.0000,-1.3731,0.8919,0.2048,1.0000
-0.7731,6.6985,4.1011,-0.0691,-0.1190,0.0425,-56.1249,2.1362,13.8260,-0.0000,-0.0000,-0.0000,0.0000,-1.4720,0.8536,0.1096,1.0000
-0.4958,6.5082,7.5651,0.3496,-0.0860,-0.1077,-51.1795,-4.1611,17.0898,-0.0000,-0.0000,-0.0000,0.0000,-1.5136,0.8153,0.0365,1.0000
-1.8944,5.9483,6.4821,0.0161,0.0344,0.0862,-54.1748,-3.4271,19.9081,-0.0000,-0.0000,-0.0000,0.0000,-1.5498,0.8516,-0.0570,1.0000
0.2189,6.7165,5.5679,0.2984,0.1164,0.1213,-58.5480,1.8845,20.9732,-0.0000,-0.0000,-0.0000,0.0000,-1.4802,0.9084,-0.0532,1.0000
1.4244,7.5118,3.8174,-0.4440,0.0440,-0.1493,-55.5527,14.3051,11.7477,-0.0000,-0.0000,-0.0000,0.0000,-1.1511,0.8842,-0.1293,1.0000
-0.9973,6.5333,5.2774,-0.0339,0.3145,0.2545,-51.8051,17.5720,-1.6205,-0.0000,-0.0000,-0.0000,0.0000,-0.9386,0.8291,-0.0122,1.0000
-0.1674,6.2995,8.1301,0.4849,0.3997,-0.2920,-52.9327,13.8855,-9.2453,-0.0000,-0.0000,-0.0000,0.0000,-0.9162,0.8646,0.1468,1.0000
-0.3812,5.7564,6.1118,0.2654,-0.0945,-0.5615,-51.7807,9.9396,-10.8063,-0.0000,-0.0000,-0.0000,0.0000,-1.0329,0.8214,0.2540,1.0000
-0.8365,7.0676,6.4777,0.2622,-0.1723,-0.0172,-53.2822,15.7272,-9.9792,-0.0000,-0.0000,-0.0000,0.0000,-0.9246,0.9098,0.1425,1.0000
0.1164,5.9519,5.1753,-0.1607,-0.0881,-0.1589,-54.1580,11.4731,-9.5367,-0.0000,-0.0000,-0.0000,0.0000,-0.9570,0.9202,0.1705,1.0000
-0.2420,6.5912,5.4626,-0.2108,-0.2032,0.1511,-53.3493,8.5312,-10.9100,-0.0000,-0.0000,-0.0000,0.0000,-0.9954,0.8740,0.1813,1.0000
-0.7076,7.3166,4.8848,0.2036,0.2506,0.2672,-53.5645,6.9778,-7.6416,-0.0000,-0.0000,-0.0000,0.0000,-1.0447,0.8332,0.1632,1.0000
-0.3753,6.5820,5.1146,-0.5932,-0.2948,-0.4188,-53.0304,6.5384,-9.9945,-0.0000,-0.0000,-0.0000,0.0000,-1.0166,0.7787,0.1736,1.0000
-0.6135,6.1894,5.8026,0.1269,0.4285,0.1490,-53.4180,9.4940,-10.9848,-0.0000,-0.0000,-0.0000,0.0000,-0.9839,0.7443,0.1772,1.0000
-1.1043,5.5338,8.0962,0.4742,-0.2831,-0.1205,-53.4317,7.0114,-8.3954,-0.0000,-0.0000,-0.0000,0.0000,-0.9555,0.6862,0.1380,1.0000
-1.1885,6.4539,4.7363,-0.3183,0.0919,0.2300,-53.6209,6.6727,-8.4000,-0.0000,-0.0000,-0.0000,0.0000,-1.0360,0.7967,0.1594,1.0000
-0.7025,5.6590,6.8887,0.3847,0.0056,-0.0555,-52.4048,6.3934,-6.2592,-0.0000,-0.0000,-0.0000,0.0000,-1.0193,0.7518,0.1339,1.0000
-1.1841,7.4463,5.3337,-0.4899,0.5872,0.3003,-54.3091,6.1493,-5.9937,-0.0000,-0.0000,-0.0000,0.0000,-1.0234,0.7553,0.1010,1.0000
-1.2655,6.3238,5.3907,0.1866,0.0802,0.0244,-52.3804,7.2433,-8.8699,-0.0000,-0.0000,-0.0000,0.0000,-0.9862,0.8233,0.1077,1.0000
-0.5317,5.9827,6.9961,0.1376,0.0482,0.1032,-52.8915,11.6776,-8.4122,-0.0000,-0.0000,-0.0000,0.0000,-0.9364,0.7591,0.0951,1.0000
-1.2428,5.8370,7.1006,0.1514,0.0067,0.0776,-51.9104,12.6938,-14.4852,-0.0000,-0.0000,-0.0000,0.0000,-0.8909,0.7472,0.1394,1.0000
-1.0169,5.2640,6.3800,0.0204,0.0184,-0.1759,-53.1876,12.0148,-10.9589,-0.0000,-0.0000,-0.0000,0.0000,-0.9187,0.7498,0.1283,1.0000
-0.7272,5.8478,6.7670,-0.0648,0.0610,0.0222,-52.7588,13.1897,-11.2503,-0.0000,-0.0000,-0.0000,0.0000,-0.9021,0.7935,0.0861,1.0000
-1.9039,6.5138,4.1725,-0.6177,0.2293,0.2055,-52.7237,11.7676,-11.9125,-0.0000,-0.0000,-0.0000,0.0000,-1.0011,0.7617,0.1703,1.0000
-0.6825,6.3697,5.9981,0.1333,-0.0626,-0.3133,-53.6499,9.0210,-8.5129,-0.0000,-0.0000,-0.0000,0.0000,-0.9567,0.7954,0.1558,1.0000
-0.5017,6.1064,4.4299,-0.4696,0.0248,0.1533,-54.9042,10.8383,-8.5876,-0.0000,-0.0000,-0.0000,0.0000,-0.9513,0.8001,0.1289,1.0000
-0.8409,5.8669,6.2822,0.0651,0.1228,0.0233,-53.7842,11.7935,-10.0311,-0.0000,-0.0000,-0.0000,0.0000,-0.8714,0.7659,0.1148,1.0000
-1.2799,5.8705,7.1050,0.4849,0.5020,0.4217,-51.5686,11.1710,-12.8311,-0.0000,-0.0000,-0.0000,0.0000,-0.8895,0.8156,0.1725,1.0000
-1.4546,5.7564,6.5464,0.4486,0.1739,0.1490,-51.8600,16.6885,-12.1857,-0.0000,-0.0000,-0.0000,0.0000,-0.7875,0.8103,0.1337,1.0000
-1.3900,6.0134,6.2515,-0.0073,0.5627,0.2981,-49.0509,16.6306,-17.3813,-0.0000,-0.0000,-0.0000,0.0000,-0.7362,0.7964,0.2231,1.0000
-2.6426,5.6559,6.3680,-0.2960,0.0557,0.1788,-52.0676,7.3792,-14.6088,-0.0000,-0.0000,-0.0000,0.0000,-0.9004,0.7506,0.2869,1.0000
-0.6498,6.7847,4.9163,-0.2012,0.2325,-0.1738,-49.5682,12.1933,-16.9312,-0.0000,-0.0000,-0.0000,0.0000,-0.8493,0.8013,0.2820,1.0000
-0.8058,6.6770,4.7312,-0.2875,0.0045,0.1831,-49.5224,12.9532,-13.3698,-0.0000,-0.0000,-0.0000,0.0000,-0.8133,0.7850,0.1371,1.0000
-0.1418,6.5840,5.6940,-0.3333,0.0322,-0.4103,-52.5208,10.7346,-16.5649,-0.0000,-0.0000,-0.0000,0.0000,-0.8959,0.8655,0.2495,1.0000
-0.9527,6.7209,6.2443,-0.3684,-0.2213,-0.1109,-52.1896,9.0088,-13.3530,-0.0000,-0.0000,-0.0000,0.0000,-0.9635,0.7700,0.1615,1.0000
-2.3054,6.2157,3.9965,-0.4909,0.1004,0.2843,-57.3456,5.0537,-5.7571,-0.0000,-0.0000,-0.0000,0.0000,-1.1006,0.8098,0.1339,1.0000
-0.2930,5.9619,7.6980,0.3730,-0.4865,-0.0822,-54.9561,4.6936,-4.7028,-0.0000,-0.0000,-0.0000,0.0000,-1.0840,0.7684,0.0575,1.0000
-1.0157,5.7289,6.2754,-0.3215,0.0983,0.1373,-53.3890,7.8674,-7.3608,-0.0000,-0.0000,-0.0000,0.0000,-1.0173,0.7324,0.0423,1.0000
0.4635,5.7652,6.0061,-0.0936,-0.0253,-0.3410,-44.9081,15.4175,-9.7321,-0.0000,-0.0000,-0.0000,0.0000,-0.8761,0.7680,0.1043,1.0000
-2.1366,4.9013,7.0647,0.2281,-0.0413,0.2225,-53.6713,3.9886,-0.5951,-0.0000,-0.0000,-0.0000,0.0000,-1.1111,0.7026,0.0479,1.0000
-2.0516,6.9643,3.6709,-2.2763,-0.3214,-0.5935,-57.4783,2.9144,0.2060,-0.0000,-0.0000,-0.0000,0.0000,-1.0886,0.9688,0.2020,1.0000
-2.3928,8.0772,0.6235,-0.3503,-0.6144,-0.0289,29.9759,-6.9962,64.7079,-0.0000,-0.0000,-0.0000,0.0000,-2.4704,1.4156,0.0041,1.0000
-3.8189,7.2272,0.4332,0.9653,0.8344,-0.3165,4.6280,27.6154,56.1905,-0.0000,-0.0000,-0.0000,0.0000,2.4912,1.2934,1.4356,1.0000
-2.4095,8.3202,-0.7192,-0.0947,0.0013,-0.0470,4.6616,21.5485,57.1762,-0.0000,-0.0000,-0.0000,0.0000,2.3834,1.2238,1.6787,1.0000
-3.9666,7.2181,0.5102,-0.1618,0.1547,-0.0939,9.3018,15.4388,55.4733,-0.0000,-0.0000,-0.0000,0.0000,2.5955,1.1724,1.3852,1.0000
-4.8692,7.2823,0.4408,0.0854,0.0205,0.0158,4.7501,16.2247,54.1229,-0.0000,-0.0000,-0.0000,0.0000,2.6461,1.1247,1.4172,1.0000
-5.2076,6.6949,-1.2979,-0.0233,0.3433,-0.0704,-11.2000,24.1318,39.8560,-0.0000,-0.0000,-0.0000,0.0000,2.4402,0.9574,1.8446,1.0000
-5.8827,5.5274,-4.4131,0.2537,0.1835,-0.2664,-24.8459,22.5937,21.3135,-0.0000,-0.0000,-0.0000,0.0000,2.5067,0.7590,2.1546,1.0000
-5.9785,5.5493,-4.1944,-0.3631,-0.1553,0.0947,-25.9201,16.6687,17.6788,-0.0000,-0.0000,-0.0000,0.0000,2.7164,0.6867,2.2007,1.0000
-0.3246,6.1415,7.2790,-0.8339,0.1366,0.1075,-28.0746,21.2921,-20.5505,-0.0000,-0.0000,-0.0000,0.0000,0.0052,0.9666,0.2592,1.0000
1.3378,6.5676,7.4079,0.0193,0.4530,0.0063,-25.9903,27.7176,-28.3707,-0.0000,-0.0000,-0.0000,0.0000,0.2667,0.9047,-0.1267,1.0000
-0.3142,5.6024,5.5839,0.2409,-0.5387,0.1756,-21.2036,28.4164,-29.8798,-0.0000,-0.0000,-0.0000,0.0000,0.3411,0.9148,-0.0436,1.0000
-0.2906,6.8350,5.0656,-0.0339,-0.0839,0.0840,-31.3980,17.5552,-23.6771,-0.0000,-0.0000,-0.0000,0.0000,0.0686,0.9812,-0.0134,1.0000
-0.5249,5.9232,6.4554,-0.5229,0.0109,-0.0779,-18.1885,26.8097,-27.1057,-0.0000,-0.0000,-0.0000,0.0000,0.3024,0.8266,0.0491,1.0000
-0.2037,5.9607,5.8205,0.0694,0.0631,0.0212,-16.4764,23.0423,-26.1887,-0.0000,-0.0000,-0.0000,0.0000,0.2855,0.8303,0.0912,1.0000
-0.3653,6.0138,7.1533,0.1386,0.0056,0.0478,-14.1235,22.8226,-25.9430,-0.0000,-0.0000,-0.0000,0.0000,0.3649,0.8097,0.0563,1.0000
-0.8513,5.3594,4.8517,-0.3141,-0.1553,0.1756,-10.0998,23.6893,-25.1160,-0.0000,-0.0000,-0.0000,0.0000,0.5215,0.8048,0.0127,1.0000
-0.4954,5.9380,6.2722,0.0023,-0.2852,0.1671,-8.7143,22.8531,-21.5363,-0.0000,-0.0000,-0.0000,0.0000,0.4893,0.7865,0.0276,1.0000
0.4759,6.1694,6.0468,0.2441,0.2368,0.1906,-5.7892,23.1216,-23.7686,-0.0000,-0.0000,-0.0000,0.0000,0.5340,0.8028,0.0652,1.0000
0.1080,6.2784,5.9985,-0.0883,0.0780,0.3301,-6.5414,22.1390,-23.0988,-0.0000,-0.0000,-0.0000,0.0000,0.5999,0.8014,-0.0303,1.0000
0.2780,8.1885,-0.9275,0.1514,0.3401,-0.3048,-12.8372,2.8046,12.7380,-0.0000,-0.0000,-0.0000,0.0000,-0.5178,1.3675,0.3434,1.0000
0.1128,7.4806,-2.3940,-0.1160,0.7034,0.1511,-9.3643,7.6370,8.7097,-0.0000,-0.0000,-0.0000,0.0000,-1.7358,1.4980,1.5565,1.0000
-1.1362,8.5393,-0.5676,0.0673,0.3752,0.0723,-8.8272,6.0135,8.1680,-0.0000,-0.0000,-0.0000,0.0000,-0.8307,1.4931,0.8698,1.0000
0.1591,8.3166,0.8015,-0.0957,-0.0146,0.0553,-1.5442,0.6271,3.5202,-0.0000,-0.0000,-0.0000,0.0000,0.9253,1.4303,-0.4534,1.0000
-1.0979,7.4224,4.0572,-0.2800,0.0045,-0.2686,-4.2969,-3.7369,-2.8259,-0.0000,-0.0000,-0.0000,0.0000,0.6304,1.2169,-0.0270,1.0000
2.0197,6.8019,-0.8465,0.6042,-3.0517,-0.4859,-5.6839,0.0885,16.0400,-0.0000,-0.0000,-0.0000,0.0000,0.7853,1.4479,-1.2955,0.0000
0.5916,8.1670,-0.8944,0.0236,0.0642,-0.0928,-24.0128,-13.3575,13.3209,-0.0000,-0.0000,-0.0000,0.0000,0.5973,1.4770,-1.6658,0.0000
-0.7384,7.9439,-0.7568,0.1216,0.1356,0.0286,-22.0627,-12.7960,12.8784,-0.0000,-0.0000,-0.0000,0.0000,2.4279,1.5141,2.7771,0.0000
-0.1558,6.9092,-5.2718,-0.2374,-0.3374,-0.6457,-9.2545,-2.9327,19.0231,-0.0000,-0.0000,-0.0000,0.0000,2.2041,1.0619,3.0221,0.0000
-2.7319,6.0657,-4.9937,-0.1106,-0.0200,0.0734,-9.1522,-3.1860,16.4093,-0.0000,-0.0000,-0.0000,0.0000,2.4158,0.9177,2.7514,0.0000
-2.2723,7.3158,-4.6158,-0.0552,0.0333,0.1224,-11.0703,-5.3741,17.4011,-0.0000,-0.0000,-0.0000,0.0000,2.3301,1.0171,2.8372,0.0000
-1.7184,7.4028,-4.0508,0.2047,-0.0264,-0.3879,-13.2492,-8.6914,16.6092,-0.0000,-0.0000,-0.0000,0.0000,2.1541,1.2016,2.9733,0.0000
-2.0125,6.6742,-5.1326,-0.0744,0.1686,0.0883,-9.4849,-4.3167,16.2979,-0.0000,-0.0000,-0.0000,0.0000,2.5184,0.9670,2.7130,0.0000
-1.7260,7.9982,-3.9131,-0.1021,-0.1957,0.0798,-11.4853,-7.3822,14.1098,-0.0000,-0.0000,-0.0000,0.0000,2.5051,1.0007,2.7701,0.0000
-1.5508,7.9535,-3.3062,-0.2470,-0.1403,0.1980,-15.8203,-9.1431,13.8474,-0.0000,-0.0000,-0.0000,0.0000,2.4073,1.1138,2.8047,0.0000
-0.5141,7.2723,-2.6127,-0.0531,0.0045,0.0957,-21.4218,-10.7117,14.0106,-0.0000,-0.0000,-0.0000,0.0000,2.1097,1.2461,3.0336,0.0000
-0.9072,7.7276,-3.5608,0.1802,0.0035,-0.1993,-17.2989,-8.8318,14.3555,-0.0000,-0.0000,-0.0000,0.0000,2.2214,1.1859,2.9105,0.0000
-1.0987,7.5640,-4.0476,-0.1234,0.0450,0.1490,-13.6398,-8.5342,15.3320,-0.0000,-0.0000,-0.0000,0.0000,2.3308,1.0988,2.8282,0.0000
-1.2519,8.0026,-4.7040,-0.1309,-0.0264,-0.0300,-12.8586,-8.1970,15.6082,-0.0000,-0.0000,-0.0000,0.0000,2.3765,1.0872,2.7782,0.0000
-1.7946,6.9695,-3.4746,0.0481,0.0450,0.0446,-12.2787,-6.5002,14.9567,-0.0000,-0.0000,-0.0000,0.0000,2.4243,1.0605,2.7578,0.0000
-1.5732,8.1375,-3.9183,-0.1042,0.0258,-0.0587,-15.3595,-7.7332,17.1585,-0.0000,-0.0000,-0.0000,0.0000,2.3514,1.0716,2.8392,0.0000
-1.7340,7.5389,-3.1210,-0.0243,0.0280,0.0308,-15.2588,-10.3165,13.9816,-0.0000,-0.0000,-0.0000,0.0000,2.4070,1.0744,2.7838,0.0000
-1.0149,7.5708,-3.2914,0.0556,0.0088,0.0265,-14.8605,-8.8943,15.7074,-0.0000,-0.0000,-0.0000,0.0000,2.3711,1.1095,2.8122,0.0000
-1.1426,7.5429,-3.9031,-0.0254,0.0195,-0.0055,-15.0314,-9.0454,14.6988,-0.0000,-0.0000,-0.0000,0.0000,2.3794,1.1139,2.8018,0.0000
-1.2487,7.8278,-3.7024,-0.1053,-0.0498,-0.0119,-13.2248,-8.9508,16.4001,-0.0000,-0.0000,-0.0000,0.0000,2.3749,1.0953,2.7968,0.0000
-1.4770,7.6259,-3.8062,-0.0467,0.0514,-0.0193,-15.2878,-9.3872,15.1550,-0.0000,-0.0000,-0.0000,0.0000,2.3463,1.0934,2.8138,0.0000
-2.0276,7.1291,-3.3162,0.2952,0.1089,-0.1407,-13.9740,-9.5016,16.6901,-0.0000,-0.0000,-0.0000,0.0000,2.4417,1.0109,2.7352,0.0000
-1.9407,7.2356,-4.5113,0.0374,0.0482,0.0680,-10.4126,-4.9454,14.6057,-0.0000,-0.0000,-0.0000,0.0000,2.4624,0.9771,2.7543,0.0000
-1.0684,6.7468,-4.2894,0.0257,-0.0370,0.0031,-13.6078,-8.5678,15.0223,-0.0000,-0.0000,-0.0000,0.0000,2.3676,1.0442,2.8489,0.0000
-0.5963,7.3533,-3.8517,-0.0190,0.0056,0.0094,-14.6484,-7.9926,12.3718,-0.0000,-0.0000,-0.0000,0.0000,2.2978,1.0887,2.9065,0.0000
-1.2280,7.0652,-4.7220,-0.1426,0.0951,0.1618,-12.9303,-8.5602,13.5757,-0.0000,-0.0000,-0.0000,0.0000,2.3301,1.0379,2.8701,0.0000
-0.2635,7.4383,-4.3696,0.0673,-0.0157,-0.0438,-12.1628,-8.4549,14.2273,-0.0000,-0.0000,-0.0000,0.0000,2.2904,1.0432,2.9398,0.0000
2.4822,8.0740,-0.5788,-0.2821,-0.1776,-0.0055,-35.0891,-3.3691,8.5815,-0.0000,-0.0000,-0.0000,0.0000,0.9399,1.3226,-2.0476,0.0000
1.1997,9.1921,1.7240,0.8332,-0.5547,-0.4955,-35.3485,-7.8033,10.9985,-0.0000,-0.0000,-0.0000,0.0000,-0.1369,1.3652,-1.0711,0.0000
0.1866,8.2009,-2.3198,0.0481,-0.2447,-0.0918,-27.6016,-10.0174,23.2574,-0.0000,-0.0000,-0.0000,0.0000,1.2146,1.4570,-2.7331,0.0000
0.3370,8.9339,-2.2938,-0.0020,-0.2948,-0.1077,-21.6583,-8.9645,31.3416,-0.0000,-0.0000,-0.0000,0.0000,1.7974,1.3731,2.7151,0.0000
-1.8006,6.8805,-4.4482,0.5584,0.1494,-1.0430,-4.9652,12.2574,26.2314,-0.0000,-0.0000,-0.0000,0.0000,1.6706,0.7486,2.5458,0.0000
-8.5004,-1.9266,-8.9082,-0.0531,0.0653,-0.8651,-15.2496,-11.2122,19.2978,-0.0000,-0.0000,-0.0000,0.0000,2.5128,-0.1177,2.3670,0.0000
-8.0024,0.2278,-7.8212,-0.8584,-0.0924,1.6627,-8.9035,-10.7910,8.8867,-0.0000,-0.0000,-0.0000,0.0000,2.8287,-0.0369,2.3872,0.0000
0.8793,7.8689,-2.0173,-0.3226,-0.0210,0.0190,-21.6827,-11.2244,8.6960,-0.0000,-0.0000,-0.0000,0.0000,2.0163,1.1472,-2.9517,0.0000
-0.9323,6.7975,-1.2552,-0.5037,0.1281,0.8212,-25.8331,-7.8033,9.0881,-0.0000,-0.0000,-0.0000,0.0000,1.8437,1.3098,-2.8682,0.0000
0.9204,8.0888,-1.2332,0.1280,-0.0072,-0.1834,-28.4286,-10.0952,10.0372,-0.0000,-0.0000,-0.0000,0.0000,1.2662,1.3674,-2.2897,0.0000
0.3011,7.7967,-2.6470,-0.0339,-0.0242,-0.0033,-24.5056,-8.7341,11.1038,-0.0000,-0.0000,-0.0000,0.0000,1.9841,1.2943,-3.0154,0.0000
0.1547,8.3769,-2.2703,-0.0872,0.0003,0.0286,-24.0356,-10.3958,9.8526,-0.0000,-0.0000,-0.0000,0.0000,1.8461,1.3372,-2.8866,0.0000
0.7823,8.7220,-2.5744,0.2366,0.0322,-0.3570,-20.4956,-10.0006,11.6135,-0.0000,-0.0000,-0.0000,0.0000,2.0275,1.2938,-3.0760,0.0000
0.3175,8.1019,-2.9151,0.0726,-0.0743,-0.0928,-16.4047,-9.0088,10.3439,-0.0000,-0.0000,-0.0000,0.0000,2.2414,1.1994,3.0645,0.0000
-4.7981,4.5960,-6.5587,-0.6262,0.1984,0.5666,-8.4274,-4.7089,10.0616,-0.0000,-0.0000,-0.0000,0.0000,2.7731,0.7203,2.5124,0.0000
-5.0998,4.8773,-6.6293,0.0438,0.1057,-0.0300,-6.8848,-4.2877,7.2632,-0.0000,-0.0000,-0.0000,0.0000,2.8789,0.6057,2.5128,0.0000
-3.4406,6.0429,-5.1677,-0.1607,-0.1425,0.3429,-6.9351,-4.6860,9.9930,-0.0000,-0.0000,-0.0000,0.0000,2.7843,0.8020,2.5685,0.0000
-3.5168,6.2412,-5.3361,-0.1064,-0.0370,0.1447,-7.8079,-6.0883,10.2829,-0.0000,-0.0000,-0.0000,0.0000,2.7339,0.8408,2.5724,0.0000
-3.0236,6.7209,-4.7826,0.0353,-0.0402,0.0670,-10.1822,-7.2586,12.0544,-0.0000,-0.0000,-0.0000,0.0000,2.6511,0.9270,2.5744,0.0000
-3.5001,6.0912,-5.4462,-0.1000,-0.0168,-0.0182,-9.1599,-6.1417,13.8733,-0.0000,-0.0000,-0.0000,0.0000,2.6235,0.8663,2.5694,0.0000
-3.0967,6.9822,-5.0974,-0.1010,-0.0700,-0.1407,-9.8816,-7.9361,14.8438,-0.0000,-0.0000,-0.0000,0.0000,2.5878,0.8699,2.5813,0.0000
-3.0408,6.2121,-4.8524,0.1600,-0.0434,-0.0513,-10.1868,-6.1554,14.1342,-0.0000,-0.0000,-0.0000,0.0000,2.6103,0.8355,2.5486,0.0000
-3.0995,6.4084,-4.9725,0.0587,-0.0146,-0.1035,-9.0073,-5.9982,15.6204,-0.0000,-0.0000,-0.0000,0.0000,2.5580,0.7983,2.5852,0.0000
-2.0759,6.8980,-4.6366,0.1610,-0.0956,-0.2036,-13.7772,-8.1512,16.5939,-0.0000,-0.0000,-0.0000,0.0000,2.4323,0.9120,2.6271,0.0000
-2.6206,7.2101,-4.8053,-0.0510,0.0408,0.1021,-13.4232,-6.9550,17.9855,-0.0000,-0.0000,-0.0000,0.0000,2.3926,0.9070,2.6194,0.0000
-1.9662,6.7301,-5.0950,0.1653,-0.0711,-0.0087,-12.0804,-7.0847,18.2709,-0.0000,-0.0000,-0.0000,0.0000,2.3033,0.9184,2.6568,0.0000
-2.5165,7.5553,-3.1821,0.0896,-0.2064,-0.0545,-4.0192,2.7985,15.2634,-0.0000,-0.0000,-0.0000,0.0000,2.2932,0.9105,2.6647,0.0000
-1.2009,7.9220,-2.2551,-0.1341,0.4392,-1.0271,4.5441,-0.2090,-11.3251,-0.0000,-0.0000,-0.0000,0.0000,2.7463,0.7912,2.4884,0.0000
-2.6761,5.0010,-7.6604,-0.2033,1.1188,-0.1429,-1.8372,-16.7816,-16.5833,-0.0000,-0.0000,-0.0000,0.0000,-2.7108,0.4298,2.8578,0.0000
1.5688,3.2273,-10.9780,-1.2867,0.4466,-0.4422,13.8977,-23.1125,-0.8316,-0.0000,-0.0000,-0.0000,0.0000,-2.4385,0.1961,-2.8069,0.0000
-1.3565,9.6933,-0.6785,0.3304,0.3486,0.1256,23.4695,28.9413,-3.7552,-0.0000,-0.0000,-0.0000,0.0000,-1.6257,1.3507,2.6923,0.0000
-0.0181,5.6982,0.1127,-2.7653,-0.9851,0.3876,41.5222,-3.1601,22.9141,-0.0000,-0.0000,-0.0000,0.0000,-1.9260,0.8998,-2.8765,0.0000
-1.5440,2.4005,-13.5123,-2.2774,0.8269,1.1983,52.2491,8.3878,-5.2551,-0.0000,-0.0000,-0.0000,0.0000,-1.2154,0.9542,2.4594,0.0000
3.5317,9.8505,1.4495,0.5253,0.0163,-0.6627,17.3050,-11.5036,-9.1843,-0.0000,-0.0000,-0.0000,0.0000,1.7442,1.1909,-0.6828,0.0000
-0.0832,7.5896,-1.0205,1.9837,1.2402,0.2651,60.5209,3.1799,30.2094,-0.0000,-0.0000,-0.0000,0.0000,-1.2622,1.3511,2.3852,0.0000
3.3669,7.3366,-6.5587,-1.3154,-1.0394,0.2374,25.9415,-11.6135,6.9473,-0.0000,-0.0000,-0.0000,0.0000,-2.5727,1.2485,-2.7519,0.0000
2.8134,8.9986,-0.0537,0.2335,-0.7103,-0.2643,-6.4468,-9.8343,-17.0822,-0.0000,-0.0000,-0.0000,0.0000,1.1730,1.3361,-0.8520,0.0000
-0.4104,7.8470,-0.4068,0.1621,-0.6783,0.1298,-15.5792,-12.1140,1.0422,-0.0000,-0.0000,-0.0000,0.0000,2.7849,1.4265,3.0355,0.0000
0.3486,8.0856,-3.9219,0.8503,0.0248,-1.5416,-6.8298,-6.7566,13.9481,-0.0000,-0.0000,-0.0000,0.0000,2.7274,1.0261,2.7791,0.0000
-3.8680,4.4049,-7.0324,0.4763,0.0567,-0.8076,-6.4911,-8.0078,4.7455,-0.0000,-0.0000,-0.0000,0.0000,2.9489,0.5533,2.5691,0.0000
-1.8393,4.3003,-8.5982,-0.2427,0.0599,0.2981,-6.5216,-6.8085,4.1946,-0.0000,-0.0000,-0.0000,0.0000,2.8069,0.5753,2.9241,0.0000
-1.2036,5.2018,-6.1908,-0.1863,-0.0082,0.3727,-9.0347,-4.8218,6.7856,-0.0000,-0.0000,-0.0000,0.0000,2.6505,0.7662,3.1103,0.0000
0.0094,5.9164,-6.7490,0.0992,0.2016,0.0606,-10.8063,-4.6021,10.5301,-0.0000,-0.0000,-0.0000,0.0000,2.5754,0.7698,3.0370,0.0000
-4.3692,5.1830,-7.4386,-0.1564,0.0514,-0.2036,-6.5445,-3.5156,6.0028,-0.0000,-0.0000,-0.0000,0.0000,2.7853,0.6572,2.6771,0.0000
-5.1261,3.8291,-7.2913,0.2622,-0.1521,-0.1759,-8.5129,-7.8049,4.1290,-0.0000,-0.0000,-0.0000,0.0000,2.9307,0.4539,2.5758,0.0000
-5.2347,4.3243,-6.3963,0.6596,0.1579,-1.0622,-4.3808,-10.8490,0.7874,-0.0000,-0.0000,-0.0000,0.0000,3.0391,0.3795,2.5392,0.0000
-3.1793,3.0190,-6.7215,0.4731,-0.2011,-1.1272,-6.6589,-11.5967,0.7477,-0.0000,-0.0000,-0.0000,0.0000,3.0731,0.2897,2.5427,0.0000
-2.4003,5.7197,-7.1688,-0.4632,-0.1755,0.4654,-6.2607,-7.2296,5.9372,-0.0000,-0.0000,-0.0000,0.0000,2.9971,0.6577,2.8292,0.0000
-3.2575,6.0046,-7.1752,-0.1863,-0.0306,-0.4135,-7.9651,-5.5832,5.8228,-0.0000,-0.0000,-0.0000,0.0000,3.0188,0.7186,2.6710,0.0000
-4.3077,5.1379,-7.2387,0.3102,0.1004,-0.3133,-7.8751,-7.6996,4.9026,-0.0000,-0.0000,-0.0000,0.0000,3.1338,0.5432,2.6314,0.0000
-5.5818,4.2748,-6.4242,0.0896,0.0983,0.1245,-7.8293,-6.0089,3.3463,-0.0000,-0.0000,-0.0000,0.0000,-3.1084,0.4140,2.6160,0.0000
-4.2151,3.9101,-7.8715,-0.1351,-0.0423,0.0212,-6.8069,-5.5450,3.1494,-0.0000,-0.0000,-0.0000,0.0000,-3.0994,0.4297,2.6149,0.0000
-3.7219,4.0637,-6.3021,0.1355,0.0365,0.1128,-6.7123,-4.3991,0.6134,-0.0000,-0.0000,-0.0000,0.0000,-3.1208,0.4769,2.6098,0.0000
-4.8628,3.9743,-6.5300,0.0566,0.1750,0.0915,-8.0078,-6.3354,1.6479,-0.0000,-0.0000,-0.0000,0.0000,-3.1242,0.4389,2.6143,0.0000
-3.6206,4.4599,-7.8412,0.1962,0.1473,0.1011,-7.0328,-4.7668,1.5930,-0.0000,-0.0000,-0.0000,0.0000,3.1057,0.4589,2.6482,0.0000
-3.4674,3.1619,-6.1166,1.1070,0.7779,-0.4124,-5.5725,-7.6492,0.8881,-0.0000,-0.0000,-0.0000,0.0000,3.1155,0.3708,2.7749,0.0000
-0.9543,3.2812,-9.1556,-0.2960,0.0109,-0.0449,-5.3909,-9.8267,1.2817,-0.0000,-0.0000,-0.0000,0.0000,-3.0738,0.3751,2.9372,0.0000
-0.5875,3.9927,-8.8160,-0.1149,-0.0104,0.1607,-8.2504,-9.4772,2.3865,-0.0000,-0.0000,-0.0000,0.0000,-3.1348,0.4436,2.9835,0.0000
-0.7296,4.3087,-8.1217,-0.1170,0.1377,0.0308,-8.6304,-7.7530,4.0863,-0.0000,-0.0000,-0.0000,0.0000,3.0461,0.4867,3.0443,0.0000
1.5405,5.1375,-6.9733,-0.6358,-0.1297,0.3567,-11.4258,-6.0318,5.4016,-0.0000,-0.0000,-0.0000,0.0000,2.8514,0.8001,-3.1400,0.0000
3.3705,7.0142,0.3386,-1.1514,-0.1009,0.6902,-37.4863,-0.4578,-0.6683,-0.0000,-0.0000,-0.0000,0.0000,0.2836,1.2336,-1.0773,0.0000
4.1502,6.9100,2.8541,-0.0041,-0.2831,-0.1258,-46.4615,11.7233,4.9698,-0.0000,-0.0000,-0.0000,0.0000,-0.2392,0.9593,-0.7992,0.0000
-0.6354,7.9671,-3.3980,1.6268,-1.2099,-0.6894,-18.8873,-2.6550,28.3051,-0.0000,-0.0000,-0.0000,0.0000,2.0125,1.1141,3.0202,0.0000
-2.9175,2.1887,-8.4114,1.2124,0.2325,-0.1716,-25.2487,1.7120,8.7860,-0.0000,-0.0000,-0.0000,0.0000,2.4342,0.0750,2.8834,0.0000
-8.4405,-0.4853,-9.9218,-0.7168,0.1910,0.1043,-23.9105,-11.7233,3.8422,-0.0000,-0.0000,-0.0000,0.0000,2.8810,-0.0101,2.6247,0.0000
-7.5623,-0.4055,-6.1485,0.0950,-0.0807,-0.1706,-18.4372,-23.2498,-0.9140,-0.0000,-0.0000,-0.0000,0.0000,-2.7907,-0.0317,2.4771,0.0000
-1.9686,7.2368,10.5287,0.3815,-0.3630,-0.0087,8.9493,23.1491,-19.7433,-0.0000,-0.0000,-0.0000,0.0000,1.3974,0.8467,-0.1622,0.0000
-0.9263,4.3039,6.7594,0.5019,-0.3214,-0.2728,10.0525,23.6252,-20.4742,-0.0000,-0.0000,-0.0000,0.0000,1.4058,0.7718,-0.0983,1.0000
-3.4997,6.4136,-0.1043,-1.9184,2.0584,0.3866,-3.4302,8.1207,11.6547,-0.0000,-0.0000,-0.0000,0.0000,0.2411,1.3023,0.4133,1.0000
0.7221,5.0860,8.0583,0.1834,0.0738,0.3461,-3.5339,18.1595,-20.5948,-0.0000,-0.0000,-0.0000,0.0000,0.9787,0.7351,-0.1006,1.0000
-1.9977,6.6303,4.2088,0.5871,-0.2383,0.0222,-0.3433,13.7589,-22.3022,-0.0000,-0.0000,-0.0000,0.0000,0.9603,0.9386,0.0246,1.0000
2.4499,5.9938,5.0001,0.0683,-0.1297,0.2438,9.3124,10.0159,-7.1472,-0.0000,-0.0000,-0.0000,0.0000,1.5502,1.1105,-0.1011,1.0000
-2.6374,5.2373,-2.7332,0.1962,0.9590,-0.0875,-0.5753,8.2428,18.0893,-0.0000,-0.0000,-0.0000,0.0000,-0.7349,1.3149,0.7293,1.0000
-1.3533,7.4020,3.7743,0.2153,-0.0988,0.2182,-18.9972,-11.8256,20.2103,-0.0000,-0.0000,-0.0000,0.0000,-0.0931,1.2078,0.1939,1.0000
1.0038,8.2739,4.1079,-0.4132,0.7779,-1.1453,-12.7319,-63.4689,29.6646,-0.0000,-0.0000,-0.0000,0.0000,-0.1450,1.1065,0.2547,1.0000
-3.0105,7.0772,4.3876,0.2185,-0.7049,0.0595,-1.9516,3.6545,-16.2811,-0.0000,-0.0000,-0.0000,0.0000,0.2245,1.1461,0.6664,1.0000
-3.4925,8.3952,-1.0540,-0.2821,0.1057,0.0063,-2.8091,-2.3453,7.7728,-0.0000,-0.0000,-0.0000,0.0000,-1.6903,1.3102,1.0562,1.0000
-2.4307,8.6614,1.0269,-0.3056,-0.0008,-0.0726,-1.0468,-6.8420,7.3517,-0.0000,-0.0000,-0.0000,0.0000,-1.6977,1.3070,1.1360,1.0000
-2.7555,7.9706,0.3410,-0.1468,-0.0264,-0.0385,-1.3947,-7.4570,6.6711,-0.0000,-0.0000,-0.0000,0.0000,-1.8121,1.2913,1.2222,1.0000
-2.1186,8.2197,0.3933,-0.0893,0.0184,-0.1407,-2.7130,-9.2606,6.3309,-0.0000,-0.0000,-0.0000,0.0000,-1.7833,1.2825,1.1836,1.0000
-3.1617,7.9312,1.1003,0.1621,-0.0509,-0.0481,-1.9562,-3.7949,5.2170,-0.0000,-0.0000,-0.0000,0.0000,-1.9772,1.2132,1.4240,1.0000
-2.8752,8.0923,-0.2009,-0.1266,0.0940,-0.0246,-0.0351,0.3143,9.1827,-0.0000,-0.0000,-0.0000,0.0000,-2.0023,1.1896,1.4593,1.0000
-3.6533,8.0134,0.4862,0.0044,0.0280,0.1213,0.7401,-1.8188,8.3099,-0.0000,-0.0000,-0.0000,0.0000,-1.8041,1.1887,1.3399,1.0000
-2.9366,7.8853,-0.3829,-0.3663,0.0866,0.0648,-3.0106,2.2736,5.5603,-0.0000,-0.0000,-0.0000,0.0000,-1.8893,1.1812,1.3871,1.0000
-2.9219,7.9128,0.7636,0.0385,-0.0146,-0.0374,-3.8086,-2.1545,7.6813,-0.0000,-0.0000,-0.0000,0.0000,-1.8833,1.1894,1.3655,1.0000
-3.2064,7.7041,0.1854,0.0460,-0.0093,0.0957,-1.3458,-1.7273,8.6014,-0.0000,-0.0000,-0.0000,0.0000,-2.0092,1.1832,1.4728,1.0000
-3.4781,7.6626,-0.1335,0.0896,-0.1350,-0.0140,-3.7643,1.5045,5.2856,-0.0000,-0.0000,-0.0000,0.0000,-2.0893,1.1730,1.5408,1.0000
-3.3349,7.7209,-0.4838,-0.0957,0.0120,0.0318,-4.5502,-0.8926,7.1381,-0.0000,-0.0000,-0.0000,0.0000,-2.1343,1.1826,1.5652,1.0000
-3.2387,8.4555,-0.8006,-0.3215,0.0898,0.0435,-4.7806,-3.4515,8.2474,-0.0000,-0.0000,-0.0000,0.0000,-2.0833,1.1917,1.5037,1.0000
-3.5520,8.1358,-0.3394,0.1259,0.0546,0.0510,-4.2908,2.7466,5.6931,-0.0000,-0.0000,-0.0000,0.0000,-2.1632,1.1796,1.5724,1.0000
-4.2818,7.9982,-1.4439,-0.2992,0.0685,0.0957,-6.7474,5.6885,7.7820,-0.0000,-0.0000,-0.0000,0.0000,-2.3420,1.1106,1.7833,1.0000
-3.9993,7.7863,-1.4220,-0.2065,0.0780,0.0063,-4.9393,2.1622,8.5037,-0.0000,-0.0000,-0.0000,0.0000,-2.4195,1.1061,1.8137,1.0000
-3.7020,8.0668,-1.5652,-0.1788,0.1281,0.0297,-3.1387,5.2032,7.0847,-0.0000,-0.0000,-0.0000,0.0000,-2.4476,1.1378,1.8822,1.0000
-4.8664,7.8677,-2.4858,0.0066,0.1547,0.1735,0.8026,4.6783,-1.8173,-0.0000,-0.0000,-0.0000,0.0000,-2.7921,0.9086,2.3916,1.0000
-5.3077,4.1491,-6.2359,0.1919,0.2953,-0.1024,4.1428,-6.4163,-10.9695,-0.0000,-0.0000,-0.0000,0.0000,-2.8411,0.4542,2.6412,1.0000
-3.4666,4.7225,-6.4510,0.5605,0.4413,-0.8097,9.0088,-8.9508,-12.6480,-0.0000,-0.0000,-0.0000,0.0000,-2.5710,0.2759,2.7150,1.0000
-4.4007,0.8072,-8.6093,-0.6784,0.0482,0.3290,17.1692,-8.4778,-14.3921,-0.0000,-0.0000,-0.0000,0.0000,-2.1815,0.0962,2.7337,1.0000
-2.0025,7.7947,-2.4558,-0.6699,-0.3182,0.2044,26.7334,7.3730,-9.8526,-0.0000,-0.0000,-0.0000,0.0000,-2.0986,1.1407,2.4013,1.0000
-0.9882,7.6067,2.3693,0.1514,0.0141,-0.1376,-6.1768,-1.3306,-16.6779,-0.0000,-0.0000,-0.0000,0.0000,-0.0760,1.2805,0.0075,1.0000
-2.2168,9.2787,1.4726,0.2612,0.0908,-0.5360,5.2231,-1.0284,-12.7716,-0.0000,-0.0000,-0.0000,0.0000,-1.0328,1.3367,0.9886,1.0000
-4.5555,7.7592,-0.7755,-0.1127,0.0376,0.1607,17.5446,8.1161,-10.3577,-0.0000,-0.0000,-0.0000,0.0000,-1.6661,1.1949,1.7354,1.0000
-2.8102,7.5724,-0.6530,0.2047,-0.0839,-0.1141,15.7562,3.1006,-8.8959,-0.0000,-0.0000,-0.0000,0.0000,-1.7011,1.2399,1.7407,1.0000
-3.3325,7.9715,-1.2707,-0.2331,0.1239,0.2502,15.7211,2.3148,-9.0240,-0.0000,-0.0000,-0.0000,0.0000,-1.7801,1.1929,1.8215,1.0000
-3.8365,6.2780,-2.4626,0.6510,0.3369,-0.3453,14.2273,14.1068,-11.1389,-0.0000,-0.0000,-0.0000,0.0000,-1.8061,1.0825,1.9546,1.0000
-4.2954,6.8330,-1.1897,-0.0190,0.0418,0.1288,18.8431,14.6454,-11.2076,-0.0000,-0.0000,-0.0000,0.0000,-1.8429,1.0536,2.0721,1.0000
-3.1681,7.6023,-1.2428,-0.1223,-0.2511,0.1277,17.0563,4.9881,-8.9783,-0.0000,-0.0000,-0.0000,0.0000,-1.7095,1.1691,1.8636,1.0000
-2.5380,9.0377,-0.6550,0.0779,0.1057,-0.2931,17.7048,4.6143,-9.5016,-0.0000,-0.0000,-0.0000,0.0000,-1.6866,1.2121,1.8200,1.0000
-2.4642,7.6331,-0.9100,0.3858,0.1462,-0.1844,19.5694,9.5505,-10.0967,-0.0000,-0.0000,-0.0000,0.0000,-1.7368,1.1467,1.9068,1.0000
-3.2722,8.1470,-0.5469,0.0620,0.0866,0.0201,19.9966,4.7043,-9.0851,-0.0000,-0.0000,-0.0000,0.0000,-1.7583,1.1802,1.9289,1.0000
-3.6741,8.0664,-0.2903,-0.0137,-0.0700,0.1575,18.9651,5.1819,-7.4341,-0.0000,-0.0000,-0.0000,0.0000,-1.7229,1.1726,1.8796,1.0000
-3.3265,7.8190,-1.0026,-0.2662,0.0983,0.0893,15.9134,3.7186,-11.5768,-0.0000,-0.0000,-0.0000,0.0000,-1.6643,1.1832,1.8025,1.0000
-3.3812,7.5916,-0.8035,0.2164,0.0301,0.0190,16.0751,5.1987,-9.2422,-0.0000,-0.0000,-0.0000,0.0000,-1.7477,1.1640,1.8887,1.0000
-3.2595,7.9096,-1.6215,0.0673,0.0184,-0.0332,17.5034,6.9946,-7.4417,-0.0000,-0.0000,-0.0000,0.0000,-1.7714,1.1521,1.9386,1.0000
-2.8253,8.0528,-1.9407,-0.1191,0.0131,-0.0161,18.3380,8.6044,-11.7676,-0.0000,-0.0000,-0.0000,0.0000,-1.7579,1.1531,1.9401,1.0000
-3.0991,8.3214,-0.4347,0.1280,0.0386,0.0116,16.2674,8.0780,-10.7819,-0.0000,-0.0000,-0.0000,0.0000,-1.6902,1.1685,1.8775,1.0000
-3.5364,7.9810,-1.2560,0.2281,-0.1755,-0.0971,18.2465,6.1356,-9.2300,-0.0000,-0.0000,-0.0000,0.0000,-1.7519,1.1531,1.9369,1.0000
-3.1134,7.5628,-1.2113,-0.3940,0.0727,-0.0044,17.3187,4.4632,-9.7672,-0.0000,-0.0000,-0.0000,0.0000,-1.7782,1.1355,1.9451,1.0000
-6.0308,6.7803,-0.3785,-0.1628,-0.1095,0.0659,16.6687,5.4428,-7.8400,-0.0000,-0.0000,-0.0000,0.0000,-1.8989,1.0509,2.0540,1.0000
-3.2387,7.4260,-1.4367,-0.0222,-0.0285,-0.0268,15.8005,7.0251,-9.9564,-0.0000,-0.0000,-0.0000,0.0000,-1.8855,1.0689,2.0279,1.0000
-3.6533,7.6949,-1.7256,0.0577,-0.0018,0.0318,13.0508,4.3671,-10.1059,-0.0000,-0.0000,-0.0000,0.0000,-1.9151,1.0704,2.0372,1.0000
-3.4039,7.4252,-1.1965,-0.0488,0.0067,0.0340,15.7089,5.7098,-6.6315,-0.0000,-0.0000,-0.0000,0.0000,-1.8365,1.0947,1.9911,1.0000
-3.2359,8.1618,-1.7156,0.0673,0.0738,-0.0822,15.4114,4.7577,-8.7860,-0.0000,-0.0000,-0.0000,0.0000,-1.8712,1.0993,2.0117,1.0000
-2.8792,7.2723,-1.8904,0.1205,0.0237,0.2992,19.0872,0.7263,-6.2836,-0.0000,-0.0000,-0.0000,0.0000,-1.9271,1.1722,2.1242,1.0000
-2.0005,8.3106,-2.3952,-0.1362,-0.0413,-0.1109,13.1760,-0.8926,-8.7234,-0.0000,-0.0000,-0.0000,0.0000,-1.9038,1.1958,2.0353,1.0000
-3.4558,7.7213,-1.2296,0.0641,0.0226,-0.0875,13.9725,-0.4929,-9.1949,-0.0000,-0.0000,-0.0000,0.0000,-1.9586,1.1858,2.0674,1.0000
-4.0691,8.4212,-2.8198,0.0694,-0.0519,-0.2579,12.7182,2.5177,-11.6211,-0.0000,-0.0000,-0.0000,0.0000,-2.1167,1.0007,2.1831,1.0000
-3.4099,6.9204,-3.5827,-0.1649,0.0386,0.0084,13.6200,4.6341,-12.0407,-0.0000,-0.0000,-0.0000,0.0000,-2.0849,1.0074,2.2108,1.0000
-3.7654,6.6690,-4.2675,-0.1106,-0.0264,-0.0012,11.2961,4.1855,-13.2660,-0.0000,-0.0000,-0.0000,0.0000,-2.1697,0.9389,2.2751,1.0000
-4.2020,7.1403,-3.6809,0.0513,0.0035,0.0606,10.5927,3.5706,-13.1912,-0.0000,-0.0000,-0.0000,0.0000,-2.2124,0.9293,2.2892,1.0000
-3.8732,7.4411,-3.1889,0.5562,0.2421,-0.6446,11.6974,1.1902,-13.1622,-0.0000,-0.0000,-0.0000,0.0000,-2.2913,0.8996,2.3846,1.0000
-3.1689,5.5445,-7.1740,-0.9192,0.2474,0.5527,18.0969,-2.4765,-12.1719,-0.0000,-0.0000,-0.0000,0.0000,-2.2905,0.5641,2.5743,1.0000
-1.9052,7.7209,-3.4363,-0.5005,-0.1574,0.3312,13.5513,-6.5186,-8.8638,-0.0000,-0.0000,-0.0000,0.0000,-2.3751,1.1464,2.5725,0.0000
-2.0492,7.3992,-4.4359,-0.0712,-0.0114,-0.0001,13.7131,-6.3492,-5.2109,-0.0000,-0.0000,-0.0000,0.0000,-2.4120,1.0703,2.5746,0.0000
-2.2515,7.0509,-4.1130,0.2377,-0.0945,-0.0523,14.5752,-2.2125,-5.5328,-0.0000,-0.0000,-0.0000,0.0000,-2.3630,0.9980,2.5765,0.0000
-2.4187,7.5010,-4.3261,-0.1873,-0.0082,0.0371,17.6117,-1.3397,-4.1397,-0.0000,-0.0000,-0.0000,0.0000,-2.3017,1.0201,2.5382,0.0000
-3.0891,7.5126,-3.8912,0.0566,0.0226,-0.0609,15.9515,-5.0476,-4.8447,-0.0000,-0.0000,-0.0000,0.0000,-2.3930,1.0203,2.5613,0.0000
-2.5759,7.8884,-4.2615,-0.1319,0.0408,-0.1013,14.4836,-3.1723,-4.9728,-0.0000,-0.0000,-0.0000,0.0000,-2.4020,0.9651,2.5597,0.0000
-1.9363,7.1203,-4.6246,-0.0371,-0.0029,-0.0278,14.7583,-5.6412,-6.0379,-0.0000,-0.0000,-0.0000,0.0000,-2.4438,0.9583,2.5924,0.0000
-3.2247,6.6107,-4.5915,0.0886,-0.0413,0.0425,12.5305,-2.6794,-7.4280,-0.0000,-0.0000,-0.0000,0.0000,-2.4572,0.9357,2.6104,0.0000
-2.3237,7.1714,-4.9973,-0.0275,-0.0285,-0.1258,13.6475,-3.8559,-6.5536,-0.0000,-0.0000,-0.0000,0.0000,-2.4498,0.9131,2.6040,0.0000
-3.0564,7.0976,-4.7395,-0.0989,0.0258,-0.0001,12.3886,-2.4780,-8.8120,-0.0000,-0.0000,-0.0000,0.0000,-2.4285,0.8868,2.5960,0.0000
-3.2651,6.5042,-4.1737,-0.0808,0.0546,0.1011,15.5060,0.4532,-7.2083,-0.0000,-0.0000,-0.0000,0.0000,-2.3653,0.9284,2.5716,0.0000
-2.7970,6.9695,-3.9067,0.0705,-0.0455,0.0808,14.9918,-1.6571,-8.6655,-0.0000,-0.0000,-0.0000,0.0000,-2.3824,0.9195,2.5737,0.0000
-2.8461,7.4802,-4.5959,0.0492,0.0408,-0.0747,13.3942,-3.2181,-5.8914,-0.0000,-0.0000,-0.0000,0.0000,-2.4312,0.9117,2.6060,0.0000
-4.0907,6.8905,-4.0420,0.3208,0.0983,0.0829,12.7731,-2.3544,-6.8726,-0.0000,-0.0000,-0.0000,0.0000,-2.3748,0.8562,2.5758,0.0000
-3.9330,6.5864,-3.4371,0.5605,-0.0860,0.2182,13.9572,-2.3041,-7.5485,-0.0000,-0.0000,-0.0000,0.0000,-2.3488,0.8726,2.5932,0.0000
-2.4127,6.9683,-4.4219,0.0843,-0.0658,0.0393,13.5544,-4.3732,-5.4733,-0.0000,-0.0000,-0.0000,0.0000,-2.4077,0.9312,2.6639,0.0000
-2.8608,6.0313,-4.4498,0.0236,-0.0327,0.1000,14.9017,-4.7348,-7.5943,-0.0000,-0.0000,-0.0000,0.0000,-2.4076,0.8978,2.6630,0.0000
-3.6178,6.7907,-5.3864,0.0353,0.3262,-0.1940,11.8958,-6.0486,-6.6360,-0.0000,-0.0000,-0.0000,0.0000,-2.4696,0.8954,2.6505,0.0000
-3.0133,6.4863,-4.9091,-0.1096,0.0163,0.0073,11.6638,-4.3503,-7.4142,-0.0000,-0.0000,-0.0000,0.0000,-2.4041,0.8486,2.6447,0.0000
-2.7471,7.0660,-5.1757,-0.6699,-0.1648,0.3780,10.0525,-5.7922,-6.5643,-0.0000,-0.0000,-0.0000,0.0000,-2.4180,0.9117,2.6419,0.0000
-2.5755,6.2528,-4.9694,0.0438,0.0482,0.0585,12.0819,-1.9531,-8.5114,-0.0000,-0.0000,-0.0000,0.0000,-2.4034,0.8874,2.6159,0.0000
-2.5476,6.9739,-5.6657,-0.2182,0.0322,-0.0992,12.4069,-0.7111,-8.6487,-0.0000,-0.0000,-0.0000,0.0000,-2.3931,0.8657,2.6206,0.0000
-3.2519,6.5337,-5.6932,-0.3141,0.0834,0.0276,13.2034,1.4557,-9.1858,-0.0000,-0.0000,-0.0000,0.0000,-2.3786,0.7810,2.6175,0.0000
-2.1402,6.9635,-5.3820,0.2622,-0.0690,0.0265,11.6180,-2.5818,-7.2403,-0.0000,-0.0000,-0.0000,0.0000,-2.3999,0.8485,2.6080,0.0000
-3.0069,7.5082,-4.7870,-0.2427,0.0429,-0.0310,10.6918,-4.5074,-5.6458,-0.0000,-0.0000,-0.0000,0.0000,-2.4061,0.8656,2.6166,0.0000
-3.6693,6.9212,-5.9753,-0.3162,0.1345,0.0244,13.9420,-0.0595,-10.0311,-0.0000,-0.0000,-0.0000,0.0000,-2.3587,0.7438,2.6031,0.0000
-3.2986,5.9559,-5.2519,0.0673,-0.0029,-0.0044,11.9141,-1.7838,-9.6420,-0.0000,-0.0000,-0.0000,0.0000,-2.3771,0.7628,2.6508,0.0000
-2.8022,6.1251,-4.3205,0.0524,-0.0104,0.1234,15.9027,0.2930,-6.5598,-0.0000,-0.0000,-0.0000,0.0000,-2.3575,0.8546,2.6275,0.0000
-2.3589,6.9008,-5.4669,0.0151,0.0067,0.1117,14.3021,-3.0045,-8.7082,-0.0000,-0.0000,-0.0000,0.0000,-2.3958,0.8993,2.6350,0.0000
-3.5547,6.5389,-4.6649,-0.0680,-0.0168,0.0190,12.0987,-4.0009,-8.2657,-0.0000,-0.0000,-0.0000,0.0000,-2.3945,0.8789,2.6127,0.0000
-2.3465,6.7241,-5.2615,-0.0616,-0.0764,-0.1099,13.4232,-3.7918,-8.1512,-0.0000,-0.0000,-0.0000,0.0000,-2.3576,0.8794,2.5719,0.0000
-3.4095,6.8302,-5.0005,-0.0723,0.0056,-0.0918,10.7101,-3.1952,-8.9981,-0.0000,-0.0000,-0.0000,0.0000,-2.3680,0.8414,2.5804,0.0000
-3.1529,6.0190,-4.7635,0.0822,-0.0114,-0.0651,12.1094,-3.1967,-11.3266,-0.0000,-0.0000,-0.0000,0.0000,-2.3401,0.7952,2.5624,0.0000
-3.4654,6.1969,-5.8616,-3.7975,2.1564,0.3898,21.3943,7.1671,-3.8361,-0.0000,-0.0000,-0.0000,0.0000,-1.9514,1.0987,2.4878,0.0000
-1.3984,5.5381,7.1010,0.3592,-1.8330,0.8819,19.1498,3.6102,5.1834,-0.0000,-0.0000,-0.0000,0.0000,1.9562,0.8655,0.0618,0.0000
-0.0125,6.5481,5.7531,0.2281,0.0344,0.0222,20.2087,2.0767,3.0594,-0.0000,-0.0000,-0.0000,0.0000,2.0058,0.9561,-0.1167,1.0000