be040bd0-3dd9-4f49-a9bc-5b42c1ebbed8,DS,1659774654770
Accelerometer x,Accelerometer y,Accelerometer z,Gyroscope x,Gyroscope y,Gyroscope z,Magnetometer x,Magnetometer y,Magnetometer z,GPS-Longitude,GPS-Latitude,GPS-Speed,Proximity_ON/OFF,Orientation yaw,Orientation pitch,Orientation roll,Screen
-0.9463,4.1220,7.6796,-0.1341,-0.3193,-0.0112,-51.3885,16.5665,-17.7170,-0.0000,-0.0000,-0.0000,0.0000,-1.2612,0.4346,0.1619,1.0000
0.9499,3.1475,8.6888,-0.3855,0.0855,0.2679,-44.3527,24.5407,-18.8171,-0.0000,-0.0000,-0.0000,0.0000,-1.0695,0.3401,0.0531,1.0000
-0.9690,2.7497,9.2965,0.0406,0.0472,-0.0613,-41.5070,25.7355,-23.3780,-0.0000,-0.0000,-0.0000,0.0000,-1.0035,0.3197,0.0982,1.0000
-1.2715,2.1547,8.1158,0.1493,-0.1840,0.1464,-41.4352,25.7019,-25.3235,-0.0000,-0.0000,-0.0000,0.0000,-1.0260,0.2938,0.1348,1.0000
1.2640,2.9851,9.2203,0.2696,-0.2980,0.1347,-41.7770,24.1852,-23.3078,-0.0000,-0.0000,-0.0000,0.0000,-1.0401,0.2560,0.1416,1.0000
-1.1019,2.7066,8.7498,-0.0531,-0.0338,0.0218,-44.2123,23.3948,-22.5510,-0.0000,-0.0000,-0.0000,0.0000,-1.0211,0.3122,0.0828,1.0000
-0.5448,2.9911,9.1728,-0.0159,0.0504,0.0868,-42.7109,22.5449,-23.1537,-0.0000,-0.0000,-0.0000,0.0000,-1.0179,0.2970,0.1087,1.0000
-0.9471,2.7545,8.1305,-0.0372,-0.0146,0.0410,-42.1997,23.3261,-23.7625,-0.0000,-0.0000,-0.0000,0.0000,-1.0070,0.3249,0.1027,1.0000
-1.0412,2.9384,8.4474,0.1077,-0.0615,-0.0272,-40.6723,24.8337,-24.4446,-0.0000,-0.0000,-0.0000,0.0000,-0.9940,0.3143,0.1005,1.0000
-0.7372,3.9504,7.3552,-0.4303,0.0078,-0.1124,-41.7099,23.1277,-23.1430,-0.0000,-0.0000,-0.0000,0.0000,-1.0163,0.3685,0.1058,1.0000
7.0791,4.9915,2.3777,-0.9128,1.6759,0.0761,-32.4554,40.7379,-4.2587,-0.0000,-0.0000,-0.0000,0.0000,-0.1098,0.4796,-1.2125,1.0000
-1.2040,2.6607,9.5180,0.4571,-0.4418,0.5310,-44.5343,-6.4987,-25.3860,-0.0000,-0.0000,-0.0000,0.0000,-1.4337,0.3104,-0.0955,1.0000
-1.3194,7.2935,5.0097,-1.2004,1.0954,0.2551,-45.7153,-8.0078,1.8585,-0.0000,-0.0000,-0.0000,0.0000,-1.7313,1.0289,-0.0205,1.0000
-1.0760,3.3399,9.5303,2.6771,0.5574,0.6194,-50.0565,12.1445,-4.4449,-0.0000,-0.0000,-0.0000,0.0000,-1.3083,0.3832,-0.0944,1.0000
-0.2460,4.0709,0.6526,0.0523,-0.2255,-1.4291,-49.5834,3.1067,-4.3152,-0.0000,-0.0000,-0.0000,0.0000,-1.3650,0.7047,0.0207,1.0000
-0.7743,7.0892,5.3979,-0.1554,0.2027,0.4830,-49.6826,-6.1279,19.4748,-0.0000,-0.0000,-0.0000,0.0000,-1.8824,0.8311,-0.0708,1.0000
-0.8437,7.0589,4.1270,-0.7498,-0.3342,-0.5450,-51.8372,-2.7374,18.8263,-0.0000,-0.0000,-0.0000,0.0000,-1.8105,0.8725,-0.0479,1.0000
2.0074,4.9683,7.5495,0.8715,-1.1523,-1.3769,-50.0717,20.0577,-0.5371,-0.0000,-0.0000,-0.0000,0.0000,-1.1049,0.6911,-0.2421,1.0000
-1.9837,9.6147,2.3661,-0.7796,0.3188,0.6481,-47.9843,4.9896,17.6041,-0.0000,-0.0000,-0.0000,0.0000,-1.8173,1.1122,-0.0699,1.0000
0.7708,7.4683,5.7786,-0.3461,-0.4812,0.0985,-49.3393,11.3739,18.7454,-0.0000,-0.0000,-0.0000,0.0000,-1.6865,1.1380,-0.1556,1.0000
0.0856,6.3709,3.6498,0.0598,0.0791,-0.2051,-51.5076,4.1824,12.5854,-0.0000,-0.0000,-0.0000,0.0000,-1.6754,0.9465,-0.0231,1.0000
-0.1199,7.9455,4.4271,-0.0137,-0.0647,0.1059,-51.2283,4.5227,14.7629,-0.0000,-0.0000,-0.0000,0.0000,-1.7927,1.0336,0.0601,1.0000
-0.3768,7.2568,3.0911,-0.3599,0.4019,0.0750,-50.6317,5.5115,17.6804,-0.0000,-0.0000,-0.0000,0.0000,-1.9038,1.0903,0.0379,1.0000
1.4882,8.7583,4.2124,-0.1725,0.1441,-0.0123,-50.4501,6.1447,14.1296,-0.0000,-0.0000,-0.0000,0.0000,-1.7909,1.0995,-0.0163,1.0000
-1.1402,6.8099,2.9275,0.2632,0.1484,-0.4139,-54.0512,7.6050,11.1176,-0.0000,-0.0000,-0.0000,0.0000,-1.7586,1.0751,0.0775,1.0000
-2.0831,7.8154,2.6163,-0.0681,0.1335,0.0836,-50.8331,-0.7172,18.7561,-0.0000,-0.0000,-0.0000,0.0000,-2.1855,1.0915,0.3106,1.0000
-0.1666,7.2564,3.8058,0.4635,-0.2106,-0.0997,-50.4288,6.7474,15.8600,-0.0000,-0.0000,-0.0000,0.0000,-1.9426,1.1112,0.1225,1.0000
0.4073,0.2801,9.8081,0.2036,-0.3204,0.9816,-44.2352,-22.5128,4.6936,-0.0000,-0.0000,-0.0000,0.0000,-1.9945,0.4995,0.0940,1.0000
-0.8138,7.1447,5.9742,-0.0329,0.8110,0.3456,-49.2157,-1.3672,15.7730,-0.0000,-0.0000,-0.0000,0.0000,-1.9565,0.8565,0.0401,1.0000
0.3135,6.0561,6.1681,0.4624,-0.0658,-0.2477,-47.7341,-4.3167,22.6410,-0.0000,-0.0000,-0.0000,0.0000,-1.9717,0.9275,0.0083,1.0000
-0.4343,6.7999,4.3461,-0.6380,-0.5313,0.0186,-45.2591,-3.8742,23.1796,-0.0000,-0.0000,-0.0000,0.0000,-2.0134,0.9206,0.0320,1.0000
3.1925,5.1810,5.8058,-0.5474,-1.1406,0.0239,1.2360,-37.1048,30.5588,-0.0000,-0.0000,-0.0000,0.0000,-2.3061,0.9939,-0.8334,1.0000
2.2360,7.2795,4.3537,0.2057,-0.1595,-0.0507,-4.8965,-41.4825,27.0157,-0.0000,-0.0000,-0.0000,0.0000,-2.3558,0.9124,-0.5814,1.0000
6.2974,7.1850,2.5748,-0.3535,-0.3448,-0.5854,-6.4102,-37.4817,27.0340,-0.0000,-0.0000,-0.0000,0.0000,-2.4422,0.9087,-0.7015,1.0000
-0.4563,4.3211,8.3089,-0.0350,-0.2980,-0.1242,-36.4029,-27.7313,16.4841,-0.0000,-0.0000,-0.0000,0.0000,-2.3573,0.6318,-0.1707,1.0000
-1.5576,3.9795,8.9170,-0.9693,0.4243,0.3339,-42.8497,-22.1252,6.3492,-0.0000,-0.0000,-0.0000,0.0000,-2.1958,0.5217,0.0163,1.0000
-0.3405,1.5175,7.6996,-2.7088,1.6909,1.6857,-49.0875,14.7339,-19.2581,-0.0000,-0.0000,-0.0000,0.0000,-1.4294,0.1056,0.3728,1.0000
-3.3907,3.6759,5.1877,-0.4334,-0.1947,-0.1508,-47.0276,8.5907,-26.0178,-0.0000,-0.0000,-0.0000,0.0000,-1.5030,0.4748,0.4694,1.0000
1.8757,6.5345,7.5870,2.8518,-1.1704,-1.5804,-54.2343,14.8331,10.4538,-0.0000,-0.0000,-0.0000,0.0000,-1.6043,0.8375,-0.0190,1.0000
-10.3878,0.4964,-3.1406,-0.2758,1.3308,-0.7878,-26.8875,-4.6646,74.8749,-0.0000,-0.0000,-0.0000,0.0000,2.0148,0.7213,1.4691,1.0000
-8.1796,4.2856,-2.1849,0.0363,-0.2224,0.2039,-22.4747,-4.8874,75.4974,-0.0000,-0.0000,-0.0000,1.0000,1.8210,0.6706,1.6461,1.0000
-8.3551,3.7357,-3.2463,0.1322,-0.1062,0.0857,-34.2651,-2.2064,69.6609,-0.0000,-0.0000,-0.0000,1.0000,1.8101,0.5877,1.7901,1.0000
-9.3810,3.7964,-4.3560,-0.0702,-0.3704,0.0122,-30.3940,-4.8935,73.6923,-0.0000,-0.0000,-0.0000,1.0000,1.7547,0.5333,1.8425,1.0000
-8.9058,4.2493,-1.4307,-0.0382,-0.1265,0.2924,-9.0622,-10.3897,76.7380,-0.0000,-0.0000,-0.0000,1.0000,1.6935,0.5595,1.6812,1.0000
-8.7861,3.1096,-3.0324,-0.0020,-0.4322,-0.4065,-24.6689,-1.5381,74.1364,-0.0000,-0.0000,-0.0000,1.0000,1.6438,0.5327,1.8533,1.0000
-6.6493,4.4811,-2.7104,0.1897,-0.5238,0.0527,-37.1735,-8.0200,68.1839,-0.0000,-0.0000,-0.0000,1.0000,1.7083,0.5544,1.9292,1.0000
-7.6796,4.0593,-3.2794,0.0289,-0.2884,-0.3116,-34.8160,-1.3748,69.4397,-0.0000,-0.0000,-0.0000,1.0000,1.6875,0.5265,1.9197,1.0000
-8.4677,3.7277,-1.9283,0.1652,-0.0913,0.4500,-26.3336,-10.8093,73.3612,-0.0000,-0.0000,-0.0000,1.0000,1.7223,0.4443,1.8343,1.0000
-10.2262,3.9675,-1.6486,-0.0681,-0.3310,-0.1593,-15.5304,-9.5810,78.2898,-0.0000,-0.0000,-0.0000,1.0000,1.6956,0.4588,1.8137,1.0000
-7.6345,4.0346,-1.3457,0.0949,-0.3587,-0.4885,-26.6495,-7.9498,74.6948,-0.0000,-0.0000,-0.0000,1.0000,1.7140,0.5459,1.8984,1.0000
-7.9705,4.7608,-0.9671,0.1716,-0.1627,-0.1955,-23.2010,-14.5599,75.9506,-0.0000,-0.0000,-0.0000,1.0000,1.7925,0.5427,1.8357,1.0000
-7.5208,3.8846,-3.3098,-0.3578,-0.3310,0.2007,-40.4694,-8.1299,72.2183,-0.0000,-0.0000,-0.0000,1.0000,1.7761,0.4913,1.9908,1.0000
-6.1413,6.2472,-2.5684,-0.1693,0.4317,0.2093,-53.1097,-14.3723,55.9494,-0.0000,-0.0000,-0.0000,1.0000,1.9912,0.6202,1.9174,1.0000
-6.7993,5.6243,-1.4479,-0.8180,0.5915,0.3936,-52.7252,-27.0386,48.4909,-0.0000,-0.0000,-0.0000,1.0000,2.1833,0.6517,1.9067,1.0000
-7.2917,6.4942,0.0026,0.1556,-0.0508,0.1453,-54.8355,-37.0911,41.3712,-0.0000,-0.0000,-0.0000,1.0000,2.4929,0.7006,1.8283,1.0000
-5.8241,5.8833,-0.4631,-0.4175,0.1824,-0.4001,-61.1435,-35.4294,39.3082,-0.0000,-0.0000,-0.0000,1.0000,2.6995,0.7034,1.8983,1.0000
-7.3244,6.4543,-1.8916,0.0246,0.6565,0.3147,-56.7398,-37.5519,30.9082,-0.0000,-0.0000,-0.0000,1.0000,2.8675,0.6967,1.9182,1.0000
-8.1580,4.8446,-1.7244,-0.0127,0.1388,-0.2137,-40.9790,-45.0577,37.9883,-0.0000,-0.0000,-0.0000,1.0000,2.9108,0.5365,1.8629,1.0000
-8.4070,4.0889,-3.1933,-0.1224,0.2410,-0.0389,-41.7847,-37.8357,37.5198,-0.0000,-0.0000,-0.0000,1.0000,2.7731,0.4761,1.9293,1.0000
-7.9062,4.0198,-3.2990,-0.0180,-0.0274,0.0303,-44.4183,-35.7193,38.3301,-0.0000,-0.0000,-0.0000,1.0000,2.6014,0.4634,1.9377,1.0000
-9.0941,3.4775,-1.9778,0.0459,0.2986,0.2700,-28.2684,-39.5264,48.6832,-0.0000,-0.0000,-0.0000,1.0000,2.4511,0.4083,1.8003,1.0000
-8.4106,3.2968,-2.3337,0.0491,-0.0977,-0.1093,-31.2912,-39.8727,48.3398,-0.0000,-0.0000,-0.0000,1.0000,2.3909,0.3952,1.8410,1.0000
-9.2561,3.3889,-2.8613,-0.0957,0.0397,0.1347,-38.5696,-37.9852,42.7567,-0.0000,-0.0000,-0.0000,1.0000,2.3344,0.3990,1.8706,1.0000
-7.5970,4.2501,-3.4909,-0.0191,-0.1712,-0.0102,-45.6726,-33.7952,40.0421,-0.0000,-0.0000,-0.0000,1.0000,2.2502,0.4770,1.9330,1.0000
-7.3615,4.4085,-2.3206,0.1290,0.1484,0.1059,-41.9373,-38.8412,42.8528,-0.0000,-0.0000,-0.0000,1.0000,2.2695,0.5088,1.8604,1.0000
-8.8324,5.1551,-2.2304,-0.1788,0.2687,-0.0283,-39.9826,-37.1490,40.4953,-0.0000,-0.0000,-0.0000,1.0000,2.2935,0.5019,1.8410,1.0000
-7.9597,5.3179,-2.2819,-0.0787,-0.0168,-0.2456,-38.7833,-33.9127,46.3715,-0.0000,-0.0000,-0.0000,1.0000,2.2257,0.5131,1.8411,1.0000
-8.1361,4.7173,-2.1191,-0.1884,-0.0466,-0.0336,-36.5189,-35.0571,47.7539,-0.0000,-0.0000,-0.0000,1.0000,2.2132,0.4568,1.8392,1.0000
-8.6117,4.3111,-1.4415,-0.1906,-0.1393,0.0271,-27.7130,-32.8751,55.7755,-0.0000,-0.0000,-0.0000,1.0000,2.2041,0.4354,1.8054,1.0000
-8.9880,5.0848,-0.2576,-0.0372,-0.2405,0.0378,-8.5632,-39.3478,51.1200,-0.0000,-0.0000,-0.0000,1.0000,2.1063,0.5185,1.6541,1.0000
-7.4820,5.3011,-2.0085,-0.0414,0.1611,-0.0560,-17.3462,-32.0038,54.3533,-0.0000,-0.0000,-0.0000,1.0000,2.0266,0.5783,1.7625,1.0000
-7.3815,5.0569,-3.0141,0.1035,0.0035,0.0644,-9.5642,-38.4048,54.7852,-0.0000,-0.0000,-0.0000,1.0000,2.0478,0.5404,1.7626,1.0000
-8.3539,1.7274,-2.8704,0.3058,0.0312,0.1965,-9.8907,-23.8525,68.5257,-0.0000,-0.0000,-0.0000,1.0000,1.8817,0.3829,1.8264,1.0000
-7.9748,3.5498,-4.8624,0.3517,-0.1265,0.0963,-31.2332,-18.7485,67.1509,-0.0000,-0.0000,-0.0000,1.0000,1.6516,0.4509,1.8835,1.0000
-8.6568,3.6300,-2.8820,0.0608,0.0749,-0.0070,-7.4249,-12.8952,79.0771,-0.0000,-0.0000,-0.0000,1.0000,1.3582,0.4268,1.7914,1.0000
-8.4158,3.0793,-3.6270,0.1738,-0.3012,0.0196,-27.7359,-7.3456,76.8600,-0.0000,-0.0000,-0.0000,1.0000,1.3299,0.4124,1.8828,1.0000
-9.0730,2.8534,-2.4814,0.1908,-0.3289,-0.0528,-20.0851,-6.1462,76.4099,-0.0000,-0.0000,-0.0000,1.0000,1.2852,0.3948,1.8913,1.0000
-8.4261,3.1854,-2.9822,0.2068,0.2442,0.0260,-29.7287,-2.8488,71.4935,-0.0000,-0.0000,-0.0000,1.0000,1.3396,0.4138,1.8539,1.0000
-8.4321,3.5984,-0.4607,-0.1032,-0.1307,0.2125,-3.9780,-14.3250,75.1175,-0.0000,-0.0000,-0.0000,1.0000,1.3785,0.4392,1.7631,1.0000
-8.5989,4.0087,-2.3425,0.3719,-0.6325,-0.1369,-15.9058,-8.6975,73.8098,-0.0000,-0.0000,-0.0000,1.0000,1.5060,0.5166,1.8895,1.0000
-9.0267,4.2261,-1.2687,0.1514,-0.1531,0.1081,-1.7487,-7.9987,75.2991,-0.0000,-0.0000,-0.0000,1.0000,1.4640,0.4360,1.7204,1.0000
-7.2781,4.7513,-2.7244,-0.0574,-0.0029,-0.0677,-35.0098,-5.6961,67.4591,-0.0000,-0.0000,-0.0000,1.0000,1.5929,0.5276,1.9424,1.0000
-7.9445,3.8247,-1.3274,0.0267,-0.1329,0.0995,-7.3120,-9.6588,75.9521,-0.0000,-0.0000,-0.0000,1.0000,1.5817,0.4358,1.7371,1.0000
-7.9018,4.4919,-2.9255,0.1450,-0.0317,-0.2126,-33.6334,-10.2356,68.4113,-0.0000,-0.0000,-0.0000,1.0000,1.7038,0.5164,1.9146,1.0000
-6.7287,5.1267,-3.1027,0.7863,-1.3803,-0.6728,-42.2684,-4.8508,59.4574,-0.0000,-0.0000,-0.0000,1.0000,1.7144,0.6097,2.0117,1.0000
-8.3096,3.9308,-1.8772,-0.0766,-0.3438,-0.1199,-13.7711,-4.8828,77.3087,-0.0000,-0.0000,-0.0000,1.0000,1.6580,0.3883,1.7703,1.0000
-8.1576,4.5406,-2.0488,0.0630,0.0717,0.1166,-20.2942,-13.1104,73.0759,-0.0000,-0.0000,-0.0000,1.0000,1.7180,0.4594,1.7913,1.0000
-9.4593,4.2604,-0.8681,-0.0329,0.0248,-0.0187,-6.4163,-16.4093,76.3474,-0.0000,-0.0000,-0.0000,1.0000,1.7355,0.4258,1.7000,1.0000
-8.5191,4.6515,-1.8669,0.1056,-0.0082,0.0857,-14.4516,-11.8729,74.4629,-0.0000,-0.0000,-0.0000,1.0000,1.7024,0.4451,1.7634,1.0000
-7.9250,5.4759,-2.1043,-0.0798,-0.2213,0.0505,-17.8391,-14.9063,72.9218,-0.0000,-0.0000,-0.0000,1.0000,1.7644,0.5072,1.7716,1.0000
-8.2901,4.4504,-1.6741,-0.1607,0.1771,0.0207,-18.2861,-16.7267,72.6257,-0.0000,-0.0000,-0.0000,1.0000,1.7639,0.5393,1.7777,1.0000
-7.5559,5.6415,-0.2767,-0.4079,0.3082,-0.0645,-25.3677,-25.9216,66.1789,-0.0000,-0.0000,-0.0000,1.0000,1.8783,0.6430,1.7705,1.0000
-7.6141,5.9503,-0.5078,-0.2247,0.0259,-0.0794,-41.2506,-32.0755,58.9600,-0.0000,-0.0000,-0.0000,1.0000,2.1283,0.6644,1.8243,1.0000
-7.7821,4.7221,-2.0373,-0.0329,0.0088,-0.2062,-44.5984,-29.1702,60.4126,-0.0000,-0.0000,-0.0000,1.0000,2.1993,0.6473,1.8834,1.0000
-7.4940,5.2840,-1.0297,-0.2183,0.1175,0.0260,-48.8937,-36.3510,52.0599,-0.0000,-0.0000,-0.0000,1.0000,2.4140,0.6350,1.8630,1.0000
-7.3192,5.2409,-0.4339,-0.2587,0.1473,-0.1423,-49.1364,-47.8012,41.9998,-0.0000,-0.0000,-0.0000,1.0000,2.7559,0.6596,1.7909,1.0000
-8.5634,4.6036,-0.5553,-0.3461,0.2560,-0.0677,-39.4119,-50.2426,40.5518,-0.0000,-0.0000,-0.0000,1.0000,2.8161,0.5778,1.7614,1.0000
-8.3428,4.1276,-2.6378,0.0736,-0.0072,0.0697,-36.4594,-42.2531,46.9437,-0.0000,-0.0000,-0.0000,1.0000,2.7225,0.4794,1.8196,1.0000
-8.4050,4.3123,-2.1769,0.0662,0.1910,-0.2041,-38.4125,-41.3208,45.1233,-0.0000,-0.0000,-0.0000,1.0000,2.6124,0.5215,1.7911,1.0000
-9.0004,3.3822,-1.3401,-0.3365,0.4189,0.0985,-21.8475,-40.8035,55.6229,-0.0000,-0.0000,-0.0000,1.0000,2.4433,0.4988,1.7244,1.0000
-8.7989,3.6172,-2.0919,0.0662,-0.0817,0.0516,-28.8086,-39.3433,48.5474,-0.0000,-0.0000,-0.0000,1.0000,2.4552,0.4049,1.8031,1.0000
-9.3419,2.1918,-1.1462,0.0331,-0.6996,-0.0528,-1.3245,-33.6853,61.1404,-0.0000,-0.0000,-0.0000,1.0000,2.2428,0.3403,1.7754,1.0000
-9.2083,3.6180,-2.6374,-0.0009,-0.0615,-0.0336,-31.0013,-35.0510,51.8799,-0.0000,-0.0000,-0.0000,1.0000,2.2779,0.4066,1.8258,1.0000
-7.5770,4.8243,-3.2559,-0.3163,0.6235,0.3168,-45.6024,-28.8345,43.5989,-0.0000,-0.0000,-0.0000,1.0000,2.1712,0.4398,1.8456,1.0000
3.5081,0.6392,14.1607,-0.3738,0.5297,2.0852,-17.6010,54.4678,-24.4919,-0.0000,-0.0000,-0.0000,0.0000,-1.1768,0.8983,0.3037,1.0000
0.2293,-0.8356,10.2977,0.0608,0.5340,1.1392,-12.8510,58.2962,-16.2186,-0.0000,-0.0000,-0.0000,0.0000,-0.4078,0.3652,-0.0932,1.0000
0.4212,3.2058,9.2710,0.4166,-0.1915,-0.0986,-12.7197,49.9985,-27.4353,-0.0000,-0.0000,-0.0000,0.0000,-0.3542,0.6985,-0.0560,1.0000
1.2005,3.5737,8.9581,0.0960,-0.0423,-0.0262,-17.1585,49.4003,-29.2099,-0.0000,-0.0000,-0.0000,0.0000,-0.3488,0.6809,-0.1013,1.0000
0.6774,4.6674,7.2439,-0.0659,-0.0008,0.0175,-19.2291,45.9488,-32.0007,-0.0000,-0.0000,-0.0000,0.0000,-0.3168,0.7177,-0.1068,1.0000
0.5968,5.9631,5.7291,-0.3727,0.3486,-0.0858,-31.4758,39.4562,-30.3253,-0.0000,-0.0000,-0.0000,0.0000,-0.5302,0.7735,-0.0696,1.0000
0.5828,5.6080,8.0910,0.0321,-0.1861,0.0303,-28.5019,38.5300,-31.2927,-0.0000,-0.0000,-0.0000,0.0000,-0.5181,0.7398,-0.0771,1.0000
2.8992,5.9703,5.3201,0.6403,-0.3949,0.0772,-35.9818,37.3764,-34.5566,-0.0000,-0.0000,-0.0000,0.0000,-0.6155,0.8197,-0.0806,1.0000
1.5944,6.7763,4.9362,-0.0947,-0.3065,-0.2541,-49.2966,35.5484,-29.5166,-0.0000,-0.0000,-0.0000,0.0000,-0.8376,0.9100,-0.1918,1.0000
1.4834,6.9751,4.9307,0.0321,-0.2895,-0.2094,-55.5130,35.8963,-21.4706,-0.0000,-0.0000,-0.0000,0.0000,-1.0164,0.9315,-0.2299,1.0000
-0.6634,7.8761,2.8074,0.1450,-0.2341,-0.1657,-65.8707,26.6373,-13.5437,-0.0000,-0.0000,-0.0000,0.0000,-1.2676,1.1070,-0.2902,1.0000
-1.6158,5.1112,4.0652,-0.2502,-4.2182,-1.1319,8.5434,-11.4258,51.2344,-0.0000,-0.0000,-0.0000,0.0000,-2.3379,1.3048,-0.4906,1.0000
0.7708,7.9838,0.4260,-0.5123,0.3188,0.2593,24.9466,-24.6933,37.3047,-0.0000,-0.0000,-0.0000,0.0000,-2.3240,1.3401,-1.3392,1.0000
0.9396,8.1375,-5.7100,-0.5176,-1.7414,0.3648,27.8336,-22.8256,34.8969,-0.0000,-0.0000,-0.0000,0.0000,-2.4335,1.3252,-1.2636,1.0000
1.2341,8.1817,-1.1777,-0.2523,0.1281,-0.1732,40.1794,-18.0786,37.9990,-0.0000,-0.0000,-0.0000,0.0000,-1.6917,1.3898,-2.0747,1.0000
1.6055,8.0768,0.1530,0.0438,0.0962,0.0079,38.1241,-19.1528,38.0707,-0.0000,-0.0000,-0.0000,0.0000,-1.7087,1.4058,-2.1023,1.0000
1.4112,8.7236,-0.1251,-0.0574,0.0152,-0.0187,40.1398,-18.2770,38.3194,-0.0000,-0.0000,-0.0000,0.0000,-1.7653,1.4101,-2.1199,1.0000
0.5772,8.4196,-0.3031,0.1162,0.0674,-0.1029,42.0853,-19.1116,38.3636,-0.0000,-0.0000,-0.0000,0.0000,-1.9727,1.4382,-1.9420,1.0000
0.0074,8.1247,-0.2400,0.0875,0.1239,0.1283,52.4078,-8.7845,41.6107,-0.0000,-0.0000,-0.0000,0.0000,-0.8346,1.4223,3.0923,1.0000
0.7452,8.2248,-0.5006,0.0640,0.0631,-0.0975,42.4316,-13.6841,40.5258,-0.0000,-0.0000,-0.0000,0.0000,-1.6781,1.4725,-2.3074,1.0000
0.9599,7.8817,0.2045,-0.1927,0.1569,0.2519,34.1187,-16.5848,40.4831,-0.0000,-0.0000,-0.0000,0.0000,-2.0080,1.4639,-1.9109,1.0000
1.4212,7.9667,0.7600,-0.2236,0.1047,0.1911,23.7961,-18.9224,39.6851,-0.0000,-0.0000,-0.0000,0.0000,-2.6914,1.3432,-1.1865,1.0000
1.7289,8.1027,0.9048,0.0022,-0.0903,-0.0688,25.4211,-18.7897,40.0192,-0.0000,-0.0000,-0.0000,0.0000,-2.6483,1.3660,-1.1876,1.0000
1.3386,7.9363,0.6486,-0.0457,0.2027,0.2029,26.6510,-20.3888,39.7446,-0.0000,-0.0000,-0.0000,0.0000,-2.4833,1.3804,-1.3251,1.0000
1.1411,8.4710,-0.3146,0.1897,0.0078,-0.2371,35.0784,-13.9694,42.3874,-0.0000,-0.0000,-0.0000,0.0000,-2.1510,1.4276,-1.6652,1.0000
1.3458,8.3609,2.7053,0.3932,-0.7305,-0.3894,-13.0875,-3.7628,52.3468,-0.0000,-0.0000,-0.0000,0.0000,-2.4138,1.2328,-0.7296,1.0000
-0.1570,8.3892,-0.9990,0.4209,-0.1829,-1.0584,72.5723,6.0547,34.9564,-0.0000,-0.0000,-0.0000,0.0000,-0.1660,1.3743,2.4791,1.0000
-4.7315,6.5094,-4.0779,-0.1554,0.0354,-0.1124,36.3037,53.9063,28.6514,-0.0000,-0.0000,-0.0000,0.0000,0.2025,0.8597,2.3409,1.0000
-5.7063,4.4332,-6.4502,-0.0233,0.1782,-0.2744,9.0759,57.3654,20.5780,-0.0000,-0.0000,-0.0000,0.0000,0.4220,0.5447,2.4024,1.0000
-1.1262,8.4072,-3.1809,-1.0417,-0.2096,0.9528,38.5651,17.5583,56.1783,-0.0000,-0.0000,-0.0000,0.0000,0.0291,1.2677,2.7177,1.0000
1.9292,6.0413,1.9942,-0.1906,-0.1137,-0.1263,-34.5047,-3.2211,41.1499,-0.0000,-0.0000,-0.0000,0.0000,-2.1596,1.1577,-0.6733,1.0000
1.0186,7.1678,4.1458,-0.0308,-0.1723,0.0527,-35.9543,-0.6424,40.9271,-0.0000,-0.0000,-0.0000,0.0000,-2.1942,1.1387,-0.4630,1.0000
-0.2511,3.4420,7.3648,-0.5527,0.8493,0.6727,-52.1194,36.6653,-18.7164,-0.0000,-0.0000,-0.0000,0.0000,-1.2083,0.6241,-0.1413,1.0000
-3.8093,2.3550,7.1940,-0.5741,-0.6794,-0.3053,-25.2487,56.1447,-30.5115,-0.0000,-0.0000,-0.0000,0.0000,-0.7274,0.3283,0.2761,1.0000
0.1216,-0.4282,11.0127,2.3309,-1.0447,0.1283,-12.1979,65.7990,-11.6318,-0.0000,-0.0000,-0.0000,0.0000,-0.2627,-0.0278,0.0668,1.0000
0.2644,6.2652,6.4897,-0.1330,0.1729,-0.0613,-43.5959,42.8452,-25.0366,-0.0000,-0.0000,-0.0000,0.0000,-0.6613,0.7204,-0.0854,1.0000
-1.8102,5.5868,7.4119,0.0236,0.2560,0.1837,-44.6564,36.7249,-25.0610,-0.0000,-0.0000,-0.0000,0.0000,-0.7488,0.7327,0.0114,1.0000
-1.6861,5.2584,6.8165,0.0534,0.0216,0.3392,-38.2050,37.7304,-29.8065,-0.0000,-0.0000,-0.0000,0.0000,-0.6521,0.7469,0.0739,1.0000
-2.6202,5.5138,5.8744,-0.2129,0.1228,0.2753,-33.9706,40.1718,-33.5220,-0.0000,-0.0000,-0.0000,0.0000,-0.5699,0.7943,0.1727,1.0000
-1.0073,5.6411,7.4382,0.0832,-0.0711,0.1507,-24.4888,37.7396,-33.7402,-0.0000,-0.0000,-0.0000,0.0000,-0.3734,0.7655,0.1775,1.0000
-1.6745,5.3610,7.3911,0.3154,0.2719,0.4053,-18.1961,42.7582,-34.2026,-0.0000,-0.0000,-0.0000,0.0000,-0.3963,0.7777,0.2620,1.0000
-1.8856,5.8534,6.5735,0.0417,-0.1691,0.0335,-15.6830,39.8254,-33.7387,-0.0000,-0.0000,-0.0000,0.0000,-0.3360,0.7829,0.2510,1.0000
-1.4503,5.9044,6.6098,0.0001,-0.2884,-0.2275,-16.0553,40.9668,-32.7499,-0.0000,-0.0000,-0.0000,0.0000,-0.3489,0.8119,0.2847,1.0000
-0.7771,6.5349,5.6844,0.0502,-0.0285,0.2316,-14.5508,42.1387,-34.3430,-0.0000,-0.0000,-0.0000,0.0000,-0.3988,0.8086,0.2219,1.0000
-1.2428,6.8362,5.0935,0.0470,0.0216,-0.0272,-16.5970,40.5380,-35.8932,-0.0000,-0.0000,-0.0000,0.0000,-0.3744,0.8346,0.1599,1.0000
-1.0412,7.1243,3.9064,-0.5613,-0.5004,-0.0730,-11.4059,38.3926,-35.7498,-0.0000,-0.0000,-0.0000,0.0000,-0.3269,0.9377,0.1726,1.0000
-1.4674,6.4922,5.3018,-0.2822,-0.1169,0.0196,-19.8395,40.4099,-33.1665,-0.0000,-0.0000,-0.0000,0.0000,-0.3907,0.8615,0.1259,1.0000
-0.2089,6.2584,6.8999,0.1567,-0.0274,-0.0272,-19.7403,42.4484,-34.0836,-0.0000,-0.0000,-0.0000,0.0000,-0.4110,0.7981,0.1150,1.0000
-0.5049,6.0341,5.9031,-0.0787,-0.2980,-0.5236,-16.2003,45.9885,-34.6146,-0.0000,-0.0000,-0.0000,0.0000,-0.4334,0.7499,0.2462,1.0000
1.2444,7.7105,7.1417,1.8185,-3.4352,-2.7980,-44.6060,18.7927,-11.9492,-0.0000,-0.0000,-0.0000,0.0000,-0.9133,0.7807,0.0600,1.0000
-4.2164,8.1825,-2.1338,-0.6518,0.3082,0.3659,-32.9712,0.9674,20.3735,-0.0000,-0.0000,-0.0000,0.0000,-2.8734,1.2204,0.8773,1.0000
-3.2383,8.4196,0.8769,-0.0553,0.1015,-0.6792,-37.8784,-1.1078,14.3936,-0.0000,-0.0000,-0.0000,0.0000,-2.8923,1.2379,0.9957,1.0000
-0.8820,8.8134,2.4774,0.9365,-0.7550,-1.2917,-55.7312,15.5930,0.5722,-0.0000,-0.0000,-0.0000,0.0000,-1.7366,1.2212,0.1345,1.0000
-2.4538,8.1985,1.0317,-0.2151,0.0791,0.4074,-40.6342,4.3198,3.9108,-0.0000,-0.0000,-0.0000,0.0000,-2.5690,1.2927,0.9094,1.0000
-2.7862,8.1630,2.1191,-0.1256,-0.0828,0.3552,-41.3025,5.3482,5.3146,-0.0000,-0.0000,-0.0000,0.0000,-2.5720,1.2943,0.9322,1.0000
-2.4347,7.8031,2.8808,0.1184,-0.0423,0.0463,-41.5054,0.5814,7.5226,-0.0000,-0.0000,-0.0000,0.0000,-2.7845,1.1982,1.0824,1.0000
0.3211,8.8924,3.0827,-0.6444,-0.0551,-0.0677,-52.2537,18.0923,-8.0154,-0.0000,-0.0000,-0.0000,0.0000,-1.5670,1.1064,0.1625,1.0000
1.1918,7.1403,2.6239,-1.5541,1.2072,1.1669,-45.6879,5.4916,1.0818,-0.0000,-0.0000,-0.0000,0.0000,-2.0254,1.1768,0.4544,1.0000
-0.9203,6.8913,4.3772,-0.3195,0.2091,0.2007,-55.4901,13.1989,-5.4550,-0.0000,-0.0000,-0.0000,0.0000,-1.5222,0.9993,0.0948,1.0000
-0.9802,7.6263,4.5667,-0.2310,0.1441,0.0282,-53.6240,15.8890,-5.5908,-0.0000,-0.0000,-0.0000,0.0000,-1.4903,0.9978,0.0711,1.0000
-0.5057,7.3174,4.9857,0.2057,-0.1148,-0.2190,-52.4139,19.4382,-10.1791,-0.0000,-0.0000,-0.0000,0.0000,-1.4181,0.9923,0.1412,1.0000
-1.7256,6.2752,5.2515,-0.5219,0.8227,0.6055,-46.4844,28.7994,-19.2596,-0.0000,-0.0000,-0.0000,0.0000,-1.2073,0.9074,0.2237,1.0000
-0.2244,2.3602,7.3145,-1.2239,0.9132,2.2418,-13.2462,60.6995,-22.6913,-0.0000,-0.0000,-0.0000,0.0000,-0.4903,0.5228,0.1879,1.0000
-3.7690,3.5306,7.2997,-0.4814,-0.7539,-0.1551,-15.7349,55.2673,-34.7595,-0.0000,-0.0000,-0.0000,0.0000,-0.5097,0.4883,0.3651,1.0000
-1.7559,3.3079,8.0974,-0.2289,-0.1041,-0.3532,-19.4199,56.4056,-34.9091,-0.0000,-0.0000,-0.0000,0.0000,-0.4541,0.4260,0.2152,1.0000
-0.8138,3.0933,10.0427,0.1983,-0.0903,-0.2435,-19.9921,55.4382,-38.1500,-0.0000,-0.0000,-0.0000,0.0000,-0.4552,0.3510,0.2746,1.0000
-2.5089,3.7181,7.5615,-0.4292,-0.3022,0.1326,-20.5521,49.2401,-39.5340,-0.0000,-0.0000,-0.0000,0.0000,-0.5587,0.4561,0.3225,1.0000
-0.3022,5.2684,6.6553,0.0459,-0.4365,-0.2179,-24.6597,51.9730,-31.2866,-0.0000,-0.0000,-0.0000,0.0000,-0.4036,0.5481,-0.0189,1.0000
-1.5935,4.8754,7.4510,-0.1671,0.2272,0.0761,-30.5191,45.6116,-32.0343,-0.0000,-0.0000,-0.0000,0.0000,-0.5481,0.5459,0.1180,1.0000
-1.1777,4.8614,7.7814,0.2547,0.1260,-0.3745,-31.1264,42.1158,-30.1559,-0.0000,-0.0000,-0.0000,0.0000,-0.5203,0.5851,0.1579,1.0000
-2.0225,5.5034,7.5603,0.0875,0.1622,0.0686,-28.9703,40.5823,-31.7337,-0.0000,-0.0000,-0.0000,0.0000,-0.6001,0.6478,0.3117,1.0000
-1.2152,6.1255,6.7355,0.5327,-0.0690,0.2125,-18.3609,39.0091,-36.3678,-0.0000,-0.0000,-0.0000,0.0000,-0.3969,0.7665,0.3333,1.0000
-1.5931,5.6387,6.9953,0.3335,-0.4929,0.3605,-19.9341,41.9937,-35.2814,-0.0000,-0.0000,-0.0000,0.0000,-0.4015,0.7047,0.2596,1.0000
-1.7264,6.1690,5.3102,-1.1727,-0.7039,0.0995,-13.1088,40.2512,-38.6520,-0.0000,-0.0000,-0.0000,0.0000,-0.2950,0.7973,0.2968,1.0000
-1.0432,7.1351,5.9143,0.0449,-0.2788,-0.0411,-15.1001,38.9145,-36.2000,-0.0000,-0.0000,-0.0000,0.0000,-0.4061,0.8530,0.2526,1.0000
-1.0616,6.6507,5.5739,0.1631,-0.2117,0.1805,-21.4966,42.5476,-30.9204,-0.0000,-0.0000,-0.0000,0.0000,-0.4101,0.7799,0.1296,1.0000
0.0553,6.1347,6.5005,-0.0830,0.0173,-0.0666,-15.6921,44.8578,-32.9758,-0.0000,-0.0000,-0.0000,0.0000,-0.3291,0.7340,0.1024,1.0000
-0.6454,5.9001,6.9163,0.0726,0.0003,-0.1274,-18.7668,44.4412,-32.2830,-0.0000,-0.0000,-0.0000,0.0000,-0.3637,0.8005,0.0897,1.0000
-1.9670,6.2213,5.2391,-0.0872,0.0536,0.2327,-35.4263,34.9747,-27.0416,-0.0000,-0.0000,-0.0000,0.0000,-0.7295,0.8718,0.0706,1.0000
0.8713,6.6375,5.3497,-0.0382,0.0344,-0.1306,-33.2428,37.9883,-27.2110,-0.0000,-0.0000,-0.0000,0.0000,-0.6257,0.8857,-0.0210,1.0000
1.2241,6.2883,6.4450,-0.0020,-0.0189,-0.1369,-37.2299,36.3815,-25.5768,-0.0000,-0.0000,-0.0000,0.0000,-0.6465,0.8495,-0.0734,1.0000
-0.2619,6.1698,4.7120,-0.1224,-0.1009,0.2050,-35.4919,33.9615,-25.7309,-0.0000,-0.0000,-0.0000,0.0000,-0.6609,0.8779,-0.0616,1.0000
0.5006,6.4719,5.5643,0.1972,0.1207,0.0005,-46.5714,26.0010,-16.5848,-0.0000,-0.0000,-0.0000,0.0000,-1.0211,0.8953,0.0031,1.0000
-0.2017,6.1630,5.3105,0.0246,0.1313,0.1176,-45.2545,29.3365,-19.2490,-0.0000,-0.0000,-0.0000,0.0000,-0.9137,0.9107,-0.0156,1.0000
1.2907,4.9117,8.0212,-0.2769,-0.4844,-0.2381,-43.8385,25.1648,-17.8207,-0.0000,-0.0000,-0.0000,0.0000,-0.8414,0.8187,-0.1796,1.0000
2.2516,5.6160,7.7442,-0.7935,1.4533,-0.0389,-36.3327,35.1151,-23.8113,-0.0000,-0.0000,-0.0000,0.0000,-0.6591,0.6702,-0.1014,1.0000
0.5082,7.3737,3.4678,0.2377,-0.1552,-0.0176,-44.7662,34.7794,-31.7657,-0.0000,-0.0000,-0.0000,0.0000,-0.8746,0.9503,0.1011,1.0000
0.1331,7.3118,5.0316,0.1588,-0.4642,-0.2445,-50.8087,32.3151,-29.8141,-0.0000,-0.0000,-0.0000,0.0000,-1.0272,0.9519,0.0150,1.0000
-0.0058,7.3430,4.9770,0.3357,-0.3608,-0.4384,-61.6837,26.5747,-16.0278,-0.0000,-0.0000,-0.0000,0.0000,-1.3106,0.9860,-0.0581,1.0000
-1.1083,7.5205,4.4570,0.0438,-0.2767,-0.1742,-64.7598,19.9570,-10.6491,-0.0000,-0.0000,-0.0000,0.0000,-1.6120,1.0766,0.0522,1.0000
-0.9435,6.2189,6.3596,0.4933,-0.8445,-0.1987,-58.6121,9.2453,3.5538,-0.0000,-0.0000,-0.0000,0.0000,-1.7185,0.9451,0.0521,1.0000
1.5637,7.0573,4.6713,0.3495,-0.0966,-0.3798,-49.6780,7.5134,24.9542,-0.0000,-0.0000,-0.0000,0.0000,-1.8016,1.0162,-0.2673,0.0000
0.3961,7.2616,5.1884,0.0939,-0.0061,-0.0613,-50.8240,8.1238,24.5651,-0.0000,-0.0000,-0.0000,0.0000,-1.9363,1.0563,-0.1452,0.0000
-0.8122,7.0912,3.3900,-0.2001,-0.0572,0.0516,-52.5589,7.6965,23.5260,-0.0000,-0.0000,-0.0000,0.0000,-1.8918,1.0820,-0.1010,0.0000
0.0908,7.1183,4.7256,0.2419,0.0525,-0.1135,-50.9308,5.9662,25.8255,-0.0000,-0.0000,-0.0000,0.0000,-1.8821,1.0722,-0.0580,0.0000
-0.6175,7.8222,4.0001,0.0012,-0.0082,-0.0421,-52.0996,7.4234,25.5234,-0.0000,-0.0000,-0.0000,0.0000,-1.9352,1.0753,0.0074,0.0000
-0.9930,7.5030,3.7603,0.0491,-0.1158,0.0058,-52.8473,10.4156,26.8875,-0.0000,-0.0000,-0.0000,0.0000,-1.9367,1.0868,0.0259,0.0000
-0.4136,7.8505,5.1170,0.0289,0.0770,-0.0922,-54.2770,8.9478,21.3593,-0.0000,-0.0000,-0.0000,0.0000,-1.9168,1.0792,0.0532,0.0000
-0.4814,7.7763,3.7276,0.0395,-0.0093,-0.0528,-54.2709,9.5215,21.2265,-0.0000,-0.0000,-0.0000,0.0000,-1.9923,1.0683,0.1203,0.0000
-0.1390,7.9475,2.4483,0.0789,-0.3651,-0.5737,-49.0479,6.3080,24.2722,-0.0000,-0.0000,-0.0000,0.0000,-1.9142,1.0627,0.0591,0.0000
2.6786,7.8465,2.7631,0.9205,-0.7433,-0.2254,18.4662,-29.5380,30.0888,-0.0000,-0.0000,-0.0000,0.0000,-2.8395,1.1456,-0.4938,0.0000
0.6555,8.0600,-0.1658,-0.1661,-0.1041,-0.0880,39.1525,-16.0065,36.9583,-0.0000,-0.0000,-0.0000,0.0000,-2.8159,1.4185,-0.7572,0.0000
1.8434,8.9898,1.1398,0.1855,0.0216,-0.1476,36.3693,-20.4468,35.7819,-0.0000,-0.0000,-0.0000,0.0000,-2.7905,1.3916,-0.9209,0.0000
1.2400,7.9331,0.4543,0.2483,0.2922,-0.2073,42.7750,-17.6514,43.5257,-0.0000,-0.0000,-0.0000,0.0000,-2.3690,1.4673,-1.3714,0.0000
0.5262,7.0940,-2.4167,-0.4920,0.2197,0.2700,42.9703,-15.7227,46.6965,-0.0000,-0.0000,-0.0000,0.0000,-2.0614,1.4663,-1.6905,0.0000
0.7823,8.8876,0.8126,0.3676,0.1313,0.0058,42.0883,-13.4872,47.5342,-0.0000,-0.0000,-0.0000,0.0000,-1.6017,1.4745,-2.1847,0.0000
0.9631,8.4790,-1.2719,-0.1117,0.0450,-0.0272,41.0873,-12.7930,48.7488,-0.0000,-0.0000,-0.0000,0.0000,-1.4215,1.4593,-2.3889,0.0000
3.1135,8.0189,-0.9690,-0.3397,-0.1723,0.0654,22.4091,-20.1370,41.8045,-0.0000,-0.0000,-0.0000,0.0000,-2.4312,1.3624,-1.3744,0.0000
-0.2264,9.1494,0.5601,0.0907,-0.1318,-0.2413,35.8688,-16.2781,40.3671,-0.0000,-0.0000,-0.0000,0.0000,-2.9153,1.4173,-1.0341,0.0000
4.1219,10.9023,4.3329,0.3091,-0.5643,-1.1202,5.6992,-29.1824,26.8753,-0.0000,-0.0000,-0.0000,0.0000,2.8499,0.8743,-0.5765,0.0000
-0.0437,8.1315,4.8828,0.2686,0.1697,-0.4576,23.3322,-24.3454,37.1994,-0.0000,-0.0000,-0.0000,0.0000,2.3581,0.9784,-0.0124,0.0000
-1.1909,7.2157,4.9925,-0.2396,-0.0913,-0.1881,26.9516,-14.4104,39.9017,-0.0000,-0.0000,-0.0000,0.0000,2.1424,1.0235,0.1705,0.0000
-1.0313,6.9300,6.0292,0.1130,-0.1201,0.0346,30.0064,-18.0069,34.4604,-0.0000,-0.0000,-0.0000,0.0000,2.1052,0.9745,0.1624,0.0000
-1.4487,6.9380,5.0663,0.0757,-0.1520,-0.0837,35.7986,-14.4730,33.9722,-0.0000,-0.0000,-0.0000,0.0000,2.1384,0.9725,0.1836,0.0000
0.0138,6.8043,4.6386,0.7383,0.0195,0.2157,55.6107,-9.4070,16.2292,-0.0000,-0.0000,-0.0000,0.0000,1.8758,1.2459,0.0911,0.0000
0.8071,9.1578,1.3362,0.5882,-0.1307,-0.4352,58.4885,-13.4995,16.6321,-0.0000,-0.0000,-0.0000,0.0000,2.1413,1.4378,-0.1789,0.0000
-0.4447,8.5477,-0.7919,-0.1064,0.0674,-0.0230,69.1422,-8.6792,27.7252,-0.0000,-0.0000,-0.0000,0.0000,0.5360,1.5050,1.4266,0.0000
0.1519,9.2703,0.5964,-0.1906,0.0557,0.2103,70.2362,-9.8434,27.2141,-0.0000,-0.0000,-0.0000,0.0000,-0.0224,1.4958,1.9861,0.0000
0.0038,7.7320,0.6299,0.2622,0.0184,-0.0571,67.8009,-3.2761,28.3920,-0.0000,-0.0000,-0.0000,0.0000,1.0729,1.5461,0.8848,0.0000
-1.3629,7.7137,-1.8748,-0.1075,0.0908,0.0388,69.6320,10.0052,39.1449,-0.0000,-0.0000,-0.0000,0.0000,-0.4564,1.3594,2.4769,0.0000
1.3043,8.5317,2.1390,-0.2428,-0.0540,0.1358,42.6086,-22.7127,18.8065,-0.0000,-0.0000,-0.0000,0.0000,2.5867,1.3400,-0.5642,0.0000
0.0238,7.2508,-1.1618,0.5296,-0.0189,-0.3969,66.4658,-11.4120,27.2430,-0.0000,-0.0000,-0.0000,0.0000,2.7865,1.4885,-0.8071,0.0000
-0.1993,7.9419,0.7412,0.0971,-0.0018,-0.1348,61.8637,-15.4724,27.3483,-0.0000,-0.0000,-0.0000,0.0000,-1.2846,1.5561,-2.9901,0.0000
1.1107,8.3314,-0.5042,-0.1575,-0.0285,-0.0358,60.7056,-17.2302,26.5656,-0.0000,-0.0000,-0.0000,0.0000,-2.9433,1.5478,-1.3559,0.0000
0.5748,8.2891,-0.7835,-0.0042,-0.0519,0.0133,63.4048,-15.2023,26.7914,-0.0000,-0.0000,-0.0000,0.0000,-2.7403,1.5285,-1.5649,0.0000
-0.0955,9.1270,0.8238,0.2909,-0.2905,-0.0102,59.6832,-11.8896,20.6665,-0.0000,-0.0000,-0.0000,0.0000,-2.5798,1.5225,-1.8075,0.0000
-0.3473,7.5848,-0.1654,-0.1522,0.1473,0.1560,61.7310,-12.1887,21.2891,-0.0000,-0.0000,-0.0000,0.0000,-3.1036,1.5405,-1.2694,0.0000
0.6096,8.5528,-0.1183,-0.1437,0.0333,0.0367,56.3049,-14.5859,21.0175,-0.0000,-0.0000,-0.0000,0.0000,-3.1337,1.5046,-1.2296,0.0000
0.3510,8.1482,-0.1271,0.1770,0.0376,-0.0837,60.4980,-17.5720,22.5189,-0.0000,-0.0000,-0.0000,0.0000,-2.7657,1.5129,-1.5993,0.0000
0.7217,8.5624,0.1327,-0.1650,-0.0381,-0.1124,59.1156,-14.6729,21.0266,-0.0000,-0.0000,-0.0000,0.0000,-2.7822,1.5162,-1.5693,0.0000
0.8961,7.9571,-0.3461,0.1631,-0.0093,-0.0901,55.5389,-16.1392,19.5572,-0.0000,-0.0000,-0.0000,0.0000,3.0443,1.4673,-1.1320,0.0000
0.2680,8.4016,0.0752,-0.1842,-0.0317,0.1592,67.1967,-11.1618,28.4317,-0.0000,-0.0000,-0.0000,0.0000,-1.8413,1.5046,-2.4693,0.0000
0.3733,8.4774,-0.4411,-0.2140,0.0237,-0.0752,62.1796,-4.4968,26.7609,-0.0000,-0.0000,-0.0000,0.0000,-2.3814,1.5088,-1.9421,0.0000
0.6311,7.5796,-0.6327,-0.1192,0.0045,0.0271,60.9146,-12.0544,25.1663,-0.0000,-0.0000,-0.0000,0.0000,-2.0516,1.5247,-2.2754,0.0000
1.1215,8.6610,-1.1873,-0.2289,0.0727,0.0314,61.8073,-11.8469,27.0782,-0.0000,-0.0000,-0.0000,0.0000,-2.1238,1.5031,-2.1866,0.0000
0.6459,7.5700,0.4794,-0.0222,0.0663,0.0772,57.1838,-14.0091,25.8179,-0.0000,-0.0000,-0.0000,0.0000,-2.4556,1.4820,-1.8672,0.0000
0.9914,8.1646,1.1901,0.2739,0.0493,-0.0592,61.0214,-9.2407,26.0620,-0.0000,-0.0000,-0.0000,0.0000,-2.4611,1.4720,-1.8879,0.0000
0.6132,8.4822,-0.0389,0.0033,0.0078,0.0804,57.5943,-14.5355,24.3561,-0.0000,-0.0000,-0.0000,0.0000,-2.2632,1.4752,-2.0482,0.0000
0.7784,7.9766,-1.1602,-0.0478,0.0695,-0.0049,60.0128,-15.9027,26.0437,-0.0000,-0.0000,-0.0000,0.0000,-2.3007,1.4574,-2.0071,0.0000
0.3007,7.8362,-0.2053,0.0129,0.0205,0.1038,57.6096,-15.5365,24.9649,-0.0000,-0.0000,-0.0000,0.0000,-2.3152,1.4539,-1.9942,0.0000
0.5748,8.1622,-0.5712,-0.3120,-0.0136,0.2125,54.6585,-16.8427,23.7411,-0.0000,-0.0000,-0.0000,0.0000,-2.4991,1.4493,-1.8109,0.0000
2.7392,9.2659,1.0908,0.4774,-0.0871,-0.0816,56.2042,-20.3445,18.9926,-0.0000,-0.0000,-0.0000,0.0000,2.8188,1.4428,-0.8890,0.0000
1.2153,7.7272,-0.2931,-0.0127,0.0014,0.0175,50.8728,-21.3638,17.3828,-0.0000,-0.0000,-0.0000,0.0000,-3.1253,1.3852,-1.2718,0.0000
3.2596,8.9375,-3.5975,-0.3514,-0.6857,-0.1817,45.9946,-22.7112,9.3048,-0.0000,-0.0000,-0.0000,0.0000,2.6492,1.2604,-0.8275,0.0000
3.0078,8.9156,1.3900,-0.4175,-0.0189,-0.0145,30.8868,-21.5622,-0.8804,-0.0000,-0.0000,-0.0000,0.0000,2.2992,1.1112,-0.6685,0.0000
3.5520,7.9196,3.8210,0.0086,-0.3257,-0.2211,24.9039,-16.1087,-4.2496,-0.0000,-0.0000,-0.0000,0.0000,2.2563,0.9191,-0.7106,0.0000
3.4698,5.9400,4.3078,-0.0468,0.1974,0.1081,28.5294,-13.2294,-4.7623,-0.0000,-0.0000,-0.0000,0.0000,2.0764,0.9353,-0.6326,0.0000
0.1658,7.8980,0.1614,1.2305,0.1590,-0.5279,71.0449,-11.3327,6.7062,-0.0000,-0.0000,-0.0000,0.0000,2.3543,1.4112,-0.9548,0.0000
-3.2511,7.1698,-2.8892,-1.6414,-0.0050,1.0668,80.1605,41.2888,4.8019,-0.0000,-0.0000,-0.0000,0.0000,-0.8218,0.8528,2.4865,0.0000
-1.8206,7.8254,-1.3944,0.2323,0.1388,-0.1348,79.7943,34.1583,14.3250,-0.0000,-0.0000,-0.0000,0.0000,-0.6959,1.2037,2.5528,0.0000
-2.2076,7.6985,-2.0440,-0.0563,0.2101,0.1262,74.7147,36.0062,22.3343,-0.0000,-0.0000,-0.0000,0.0000,-0.4581,1.1905,2.5208,0.0000
-3.4231,5.6120,7.1062,-0.4963,1.9657,1.8487,2.1973,-23.2651,52.1561,-0.0000,-0.0000,-0.0000,0.0000,-2.9006,0.9878,-0.0582,0.0000
-1.0257,5.4200,4.8429,-0.5464,-0.8935,-0.1135,-43.8049,-0.5096,19.5587,-0.0000,-0.0000,-0.0000,0.0000,-2.3533,0.9814,0.0939,0.0000
-0.5927,6.2712,5.4542,-0.0446,-0.2522,0.1624,-42.5919,-3.2410,17.5613,-0.0000,-0.0000,-0.0000,0.0000,-2.1780,0.8950,-0.0472,1.0000
0.0521,6.7640,5.0596,0.0438,-0.0285,0.1049,-44.1360,-0.1785,19.1666,-0.0000,-0.0000,-0.0000,0.0000,-2.0905,0.8623,-0.0269,1.0000
-2.7738,5.3259,2.9347,-0.0052,-1.1044,1.3779,56.9412,-9.5367,20.7352,-0.0000,-0.0000,-0.0000,0.0000,3.1194,1.4058,-0.7214,1.0000
3.9539,9.5704,0.5074,-0.1788,-0.0210,-0.0421,39.5218,-31.8466,22.9279,-0.0000,-0.0000,-0.0000,0.0000,-2.6809,1.1609,-1.3042,1.0000
2.3398,8.1530,-0.0728,-0.0851,-0.0562,0.0399,39.7446,-30.5801,21.7682,-0.0000,-0.0000,-0.0000,0.0000,-2.7207,1.1923,-1.3620,1.0000
2.2991,7.0936,1.0860,0.4571,0.3944,-0.1891,36.4380,-31.2088,19.8730,-0.0000,-0.0000,-0.0000,0.0000,-2.9691,1.1278,-1.2176,1.0000
1.8669,8.4016,-1.5756,-0.1874,0.1430,0.0985,52.7679,-30.2994,40.2344,-0.0000,-0.0000,-0.0000,0.0000,-2.2025,1.2512,-1.8824,1.0000
2.2668,8.4535,-0.6989,0.3091,0.0109,-0.1987,59.5764,-21.4401,43.0786,-0.0000,-0.0000,-0.0000,0.0000,-2.1566,1.2775,-1.9491,1.0000
1.1890,7.6035,-1.3617,0.2100,0.0493,-0.0059,64.7751,-9.3750,49.9695,-0.0000,-0.0000,-0.0000,0.0000,-1.7465,1.2813,-2.3283,1.0000
0.5337,8.0349,-0.7583,-0.1479,-0.0338,-0.0155,61.3586,-24.3622,37.6038,-0.0000,-0.0000,-0.0000,0.0000,-2.0228,1.3240,-2.1085,1.0000
0.4970,8.6319,-1.1394,-0.4782,0.9825,0.3850,53.3249,-22.3892,35.6659,-0.0000,-0.0000,-0.0000,0.0000,-2.4001,1.3783,-1.6830,1.0000
3.4184,8.5580,-0.8988,-0.1916,0.0131,-0.0560,43.9331,-27.9083,32.7576,-0.0000,-0.0000,-0.0000,0.0000,-2.4263,1.3008,-1.6788,1.0000
2.2807,7.4056,0.0796,-0.1064,0.1015,0.2050,35.7910,-31.0547,31.1005,-0.0000,-0.0000,-0.0000,0.0000,-2.5825,1.2387,-1.4981,1.0000
2.5205,7.8613,0.1343,0.0971,0.0227,-0.0485,41.2704,-29.8309,37.3856,-0.0000,-0.0000,-0.0000,0.0000,-2.4323,1.2591,-1.6564,1.0000
2.9499,7.9152,-0.9974,0.0768,0.0248,0.0410,45.7016,-29.0253,40.5746,-0.0000,-0.0000,-0.0000,0.0000,-2.2980,1.2805,-1.7872,1.0000
2.6454,7.5820,0.5940,-0.0542,-0.0498,0.0548,41.4734,-28.7735,37.9028,-0.0000,-0.0000,-0.0000,0.0000,-2.2686,1.2555,-1.7996,1.0000
2.8557,7.2396,-0.5568,-0.0808,-0.0295,0.0772,40.2557,-28.4760,38.9893,-0.0000,-0.0000,-0.0000,0.0000,-2.3182,1.2303,-1.7427,1.0000
3.7978,7.3561,0.2137,-0.0947,-0.1158,-0.1146,39.4775,-31.9244,39.6851,-0.0000,-0.0000,-0.0000,0.0000,-2.3822,1.2007,-1.6856,1.0000
3.2651,7.4707,0.0333,-0.0148,0.1313,0.0601,42.4622,-32.0129,37.5229,-0.0000,-0.0000,-0.0000,0.0000,-2.3903,1.1798,-1.6796,1.0000
3.6989,7.3318,0.4032,0.0140,0.0440,0.0452,30.2856,-33.1635,29.5578,-0.0000,-0.0000,-0.0000,0.0000,-2.6874,1.1035,-1.4049,1.0000
3.5488,7.3940,-1.0281,-0.3695,0.3827,-0.3383,36.1725,-32.8918,34.3384,-0.0000,-0.0000,-0.0000,0.0000,-2.5209,1.1300,-1.5697,1.0000
-0.7703,0.0961,11.6616,-0.2651,0.7236,1.5462,-43.2266,-10.2722,-4.8447,-0.0000,-0.0000,-0.0000,0.0000,-2.2652,0.3105,0.0250,1.0000
-4.6589,0.1811,7.9174,0.4081,0.5723,-0.0911,-38.3179,17.1234,-22.0779,-0.0000,-0.0000,-0.0000,0.0000,-1.6605,0.1269,0.3582,1.0000
10.2147,1.7796,18.7747,5.4511,-3.8240,-5.0617,-38.9893,24.7543,21.7804,-0.0000,-0.0000,-0.0000,0.0000,-1.4857,0.6530,-0.5473,1.0000
-9.4193,5.1379,-1.6159,0.0747,0.0184,0.0154,-37.4863,4.0619,66.6428,-0.0000,-0.0000,-0.0000,1.0000,1.6809,0.8170,1.8969,1.0000
-7.6915,5.5940,-1.6558,-0.3919,0.4978,-0.2818,-49.4614,-6.0822,64.8956,-0.0000,-0.0000,-0.0000,1.0000,2.1675,0.6969,1.8116,1.0000
-8.2470,5.6834,-2.4770,-0.1597,0.4498,-0.0794,-42.9047,-23.7457,63.7650,-0.0000,-0.0000,-0.0000,1.0000,2.4789,0.5612,1.6999,1.0000
-8.1061,3.9831,-3.9343,0.2664,-0.0018,0.1645,-43.7805,-24.4934,61.0794,-0.0000,-0.0000,-0.0000,1.0000,2.4131,0.4723,1.7751,1.0000
-8.3811,4.2225,-2.5664,0.1983,-0.2170,0.1091,-23.7808,-20.5490,73.6145,-0.0000,-0.0000,-0.0000,1.0000,2.1585,0.4435,1.7313,1.0000
-8.4122,3.9979,-1.7667,0.1045,-0.2245,-0.1284,-2.3163,-17.5583,74.1882,-0.0000,-0.0000,-0.0000,1.0000,1.9497,0.4861,1.6244,1.0000
-8.9633,3.7106,-2.2735,0.0960,-0.1467,0.1038,1.4969,-20.6589,74.1425,-0.0000,-0.0000,-0.0000,1.0000,1.8644,0.4392,1.6398,1.0000
-9.0658,3.3119,-3.6134,0.3112,-0.0530,0.0037,-2.6489,-1.5091,80.0201,-0.0000,-0.0000,-0.0000,1.0000,1.5285,0.4311,1.7064,1.0000
-9.0127,3.6140,-2.8353,0.2590,-0.0966,0.1230,6.6666,8.1558,82.0190,-0.0000,-0.0000,-0.0000,1.0000,1.1961,0.4209,1.7210,1.0000
-8.3463,2.2318,-3.4650,0.3005,0.1974,0.1560,-5.8014,25.2106,78.3722,-0.0000,-0.0000,-0.0000,1.0000,0.8862,0.4321,1.8111,1.0000
-9.3028,2.1711,-4.0815,-0.1373,-0.1243,0.2508,-4.2526,26.7685,75.5722,-0.0000,-0.0000,-0.0000,1.0000,0.7755,0.3673,1.8468,1.0000
-8.0598,4.5928,-2.8150,0.0747,0.0610,-0.0528,-4.4083,20.5551,66.6565,-0.0000,-0.0000,-0.0000,1.0000,0.8365,0.5036,1.8245,1.0000
-8.5303,3.0853,-2.4646,-0.1000,-0.1915,0.0164,-3.6652,26.1963,68.5547,-0.0000,-0.0000,-0.0000,1.0000,0.8340,0.3978,1.8598,1.0000
-8.5746,3.2261,-2.5181,-0.0862,-0.0604,0.0473,-3.0502,26.4847,63.7573,-0.0000,-0.0000,-0.0000,1.0000,0.9013,0.4058,1.8498,1.0000
-8.7538,2.9612,-3.4861,-0.1053,0.1856,-0.0059,-8.8013,29.5441,64.9261,-0.0000,-0.0000,-0.0000,1.0000,1.0251,0.3706,1.8429,1.0000
-9.0219,3.2892,-1.9471,0.0001,-0.1670,-0.0304,-5.9036,25.6882,69.0002,-0.0000,-0.0000,-0.0000,1.0000,1.1150,0.3728,1.8483,1.0000
-8.5167,3.6252,-2.1123,-0.0127,0.1409,0.2210,-4.7333,22.5296,67.4789,-0.0000,-0.0000,-0.0000,1.0000,1.1680,0.3600,1.8077,1.0000
-7.6840,4.5134,-2.8413,0.0012,-0.0391,-0.2030,-14.9261,22.2092,64.5355,-0.0000,-0.0000,-0.0000,1.0000,1.2086,0.4230,1.8873,1.0000
-8.4425,4.4444,-2.3006,0.0683,0.1579,-0.0666,-7.3822,22.3007,66.4124,-0.0000,-0.0000,-0.0000,1.0000,1.2656,0.4271,1.8110,1.0000
-8.2598,4.5258,-2.1857,-0.0627,0.0695,0.0154,-8.5480,23.6237,68.4891,-0.0000,-0.0000,-0.0000,1.0000,1.2499,0.4039,1.8068,1.0000
-8.5028,4.1172,-2.0935,-0.1000,-0.0093,-0.0038,-9.0347,22.1695,67.5369,-0.0000,-0.0000,-0.0000,1.0000,1.2364,0.4179,1.8227,1.0000
-8.2123,5.0306,-2.4347,0.0022,0.0386,-0.0240,-14.3677,21.8094,65.1993,-0.0000,-0.0000,-0.0000,1.0000,1.2442,0.4557,1.8437,1.0000
-8.2242,4.0306,-2.0983,-0.0382,0.1707,0.1027,-9.9014,24.7620,67.2623,-0.0000,-0.0000,-0.0000,1.0000,1.2341,0.4474,1.8416,1.0000
-8.7370,4.4212,-1.1083,0.0342,0.1217,0.0676,5.1437,19.3909,70.6070,-0.0000,-0.0000,-0.0000,1.0000,1.2369,0.4424,1.7348,1.0000
-8.5710,4.3035,-1.8437,-0.0414,-0.1339,0.0154,-3.3981,20.8160,69.3405,-0.0000,-0.0000,-0.0000,1.0000,1.2649,0.4406,1.7772,1.0000
-8.1624,4.4352,-1.7563,0.1237,-0.0455,-0.1082,-3.1219,21.0983,68.8522,-0.0000,-0.0000,-0.0000,1.0000,1.2370,0.4362,1.7823,1.0000
-8.3914,3.9500,-2.3030,-0.0777,0.3391,-0.0890,-8.0093,27.6337,68.1046,-0.0000,-0.0000,-0.0000,1.0000,1.1967,0.4304,1.8351,1.0000
-8.4050,4.0593,-2.7667,0.4667,-0.1542,-0.0262,-8.0566,31.1325,68.6722,-0.0000,-0.0000,-0.0000,1.0000,1.1869,0.4046,1.8406,1.0000
-8.2985,3.5809,-3.5659,0.0012,0.1590,-0.2456,-8.7967,34.1965,66.7587,-0.0000,-0.0000,-0.0000,1.0000,1.0996,0.4027,1.8625,1.0000
-9.3200,3.8506,-0.1830,-0.3237,0.6128,0.0516,30.7465,33.6731,64.0442,-0.0000,-0.0000,-0.0000,1.0000,0.9386,0.3768,1.6159,1.0000
-8.1764,4.0924,-2.7280,0.5210,-0.5835,-0.1934,-1.3535,33.3633,67.3798,-0.0000,-0.0000,-0.0000,1.0000,1.0248,0.3845,1.8239,1.0000
-8.9102,3.2234,-2.6597,-0.0457,-0.0796,-0.0059,-0.5051,36.9308,66.8289,-0.0000,-0.0000,-0.0000,1.0000,0.9970,0.3460,1.8323,1.0000
-10.1372,2.2605,-1.1067,-0.0915,-0.2373,0.0665,22.7386,42.0990,60.3729,-0.0000,-0.0000,-0.0000,1.0000,0.8779,0.3269,1.6961,1.0000
-8.5183,3.6978,-2.4734,0.4720,-0.4727,-0.1402,11.6776,39.8972,66.5543,-0.0000,-0.0000,-0.0000,1.0000,0.9433,0.3481,1.7693,1.0000
-7.9685,4.9639,-1.9969,-0.1767,0.5212,-0.0230,7.2144,25.4532,69.4077,-0.0000,-0.0000,-0.0000,1.0000,1.0549,0.4200,1.7706,1.0000
-8.0235,5.0218,-3.4027,0.3282,0.1281,-0.1263,3.6652,35.1028,66.2384,-0.0000,-0.0000,-0.0000,1.0000,0.9711,0.4180,1.8152,1.0000
-8.1105,3.3570,-3.6091,-0.0031,0.1164,-0.0528,-9.1431,37.6038,63.3514,-0.0000,-0.0000,-0.0000,1.0000,0.9775,0.3508,1.9543,1.0000
-7.2977,4.9927,-3.7032,-0.0265,-0.1169,0.0388,-5.5832,34.6512,64.3799,-0.0000,-0.0000,-0.0000,1.0000,0.9896,0.3843,1.9175,1.0000
-9.0806,2.9261,-2.4016,0.0928,-0.0466,0.1549,5.3864,39.8178,66.0034,-0.0000,-0.0000,-0.0000,1.0000,0.9418,0.3479,1.8460,1.0000
-8.7961,2.9680,-3.7140,0.2409,-0.0285,0.0623,5.5435,41.5756,63.5437,-0.0000,-0.0000,-0.0000,1.0000,0.8912,0.3502,1.8565,1.0000
-8.7562,2.6894,-3.7336,0.2292,-0.1297,0.0164,6.6895,43.4189,60.2707,-0.0000,-0.0000,-0.0000,1.0000,0.7770,0.3313,1.8645,1.0000
-9.0894,3.2090,-4.0237,0.2174,-0.1936,-0.1359,8.8501,43.1442,50.5341,-0.0000,-0.0000,-0.0000,1.0000,0.6177,0.3286,1.8537,1.0000
-8.4254,2.9217,-4.3461,-0.4750,0.4083,0.0420,-4.8645,45.7840,36.4380,-0.0000,-0.0000,-0.0000,1.0000,0.4298,0.3239,1.9926,1.0000
-7.6425,5.1279,-2.7463,0.1035,-0.0104,0.1603,5.2582,35.4584,45.1233,-0.0000,-0.0000,-0.0000,1.0000,0.5625,0.4920,1.9833,1.0000
-6.6397,4.9440,-3.9187,0.1418,-0.1350,0.1400,2.6886,41.0828,39.8529,-0.0000,-0.0000,-0.0000,1.0000,0.5744,0.4795,2.0569,1.0000
-8.4988,3.9731,0.0708,0.0342,0.0919,-0.0549,38.3789,30.2185,29.6219,-0.0000,-0.0000,-0.0000,1.0000,0.6851,0.4484,1.5430,1.0000
-9.1029,5.0178,-0.8633,-0.2225,-0.1531,0.0282,10.4309,15.1962,53.2913,-0.0000,-0.0000,-0.0000,1.0000,1.0746,0.5212,1.8707,1.0000
-8.6089,4.0266,0.9335,-0.5922,0.9814,0.2583,15.5014,15.0894,58.6075,-0.0000,-0.0000,-0.0000,1.0000,1.1594,0.5473,1.8014,1.0000
-10.7661,2.0961,-0.2532,0.3666,-0.8168,0.1145,25.4135,45.1340,58.0795,-0.0000,-0.0000,-0.0000,1.0000,0.8690,0.3457,1.7108,1.0000
-8.6444,2.9847,-3.8469,-0.1171,-0.0413,-0.0997,-21.2219,29.6646,61.1038,-0.0000,-0.0000,-0.0000,1.0000,1.3102,0.4034,2.0077,1.0000
-8.4377,3.1316,-3.6138,0.0598,0.3263,0.1059,-13.8657,28.8971,65.0452,-0.0000,-0.0000,-0.0000,1.0000,1.2736,0.4123,1.9384,1.0000
-0.8094,4.6016,7.5978,0.0736,0.1079,0.3211,-42.2592,-0.6241,9.5734,-0.0000,-0.0000,-0.0000,0.0000,-1.6738,0.8125,0.0481,1.0000
-0.3613,5.6802,6.5607,0.3154,-0.1403,0.1081,-43.2053,1.0742,10.8093,-0.0000,-0.0000,-0.0000,0.0000,-1.6332,0.8209,0.0272,1.0000
-2.9602,4.5014,3.3469,-0.0212,-2.7257,1.9318,52.1133,2.6459,29.0924,-0.0000,-0.0000,-0.0000,0.0000,-2.8150,1.3173,0.0632,0.0000
1.6646,7.2400,-0.7596,0.1258,0.4637,0.2551,47.9858,-26.9608,21.7728,-0.0000,-0.0000,-0.0000,0.0000,-2.0630,1.2599,-1.9091,0.0000
2.2624,8.7751,-0.7827,0.1205,0.0408,0.0559,49.5575,-25.0488,23.2635,-0.0000,-0.0000,-0.0000,0.0000,-2.0853,1.2837,-1.9646,0.0000
1.2867,7.5325,-2.5736,0.3474,-0.2415,-0.4544,62.8632,-18.8126,30.6335,-0.0000,-0.0000,-0.0000,0.0000,-1.8661,1.2846,-2.3185,0.0000
1.3454,7.0605,-3.3297,-0.1629,0.1015,0.1848,56.8802,-21.6766,28.3310,-0.0000,-0.0000,-0.0000,0.0000,-1.9707,1.2613,-2.2389,0.0000
2.6071,7.8406,-1.4016,0.1961,-0.0721,-0.1508,47.4747,-27.3483,28.3264,-0.0000,-0.0000,-0.0000,0.0000,-2.2572,1.2262,-1.9525,0.0000
1.9252,7.6778,-1.2899,-0.0361,-0.0040,0.0665,50.7294,-26.0132,30.1453,-0.0000,-0.0000,-0.0000,0.0000,-2.1935,1.2420,-2.0346,0.0000
1.8976,7.8035,-0.9072,0.1620,0.0354,-0.0230,41.7374,-27.5848,26.5244,-0.0000,-0.0000,-0.0000,0.0000,-2.5001,1.2306,-1.7468,0.0000
2.1111,7.8896,-0.2975,-0.0180,0.0546,-0.0145,46.7178,-27.2888,26.6998,-0.0000,-0.0000,-0.0000,0.0000,-2.3273,1.2607,-1.9000,0.0000
2.2931,8.1694,-0.7663,0.0044,0.0536,0.0324,48.8373,-26.7029,29.6539,-0.0000,-0.0000,-0.0000,0.0000,-2.2394,1.2677,-1.9911,0.0000
2.2157,8.5856,-1.5010,0.3005,-0.1169,-0.2019,49.0707,-25.2075,29.4388,-0.0000,-0.0000,-0.0000,0.0000,-2.3222,1.2768,-1.9283,0.0000
1.5389,5.6610,5.0189,-0.1405,0.0578,0.6758,-35.4309,-4.1397,27.0325,-0.0000,-0.0000,-0.0000,0.0000,-2.4998,0.9301,-0.2401,0.0000
0.2049,4.8279,7.1505,0.3879,0.0685,-0.1348,-42.6834,2.6459,17.7887,-0.0000,-0.0000,-0.0000,0.0000,-2.1064,0.7518,-0.1856,0.0000
0.0888,5.1092,8.2207,0.2696,0.0078,-0.0933,-40.5746,2.4033,19.1574,-0.0000,-0.0000,-0.0000,0.0000,-1.9889,0.7417,-0.1723,1.0000
-0.0796,5.6056,6.8512,0.0342,-0.1201,-0.0038,-41.5802,1.0864,18.7561,-0.0000,-0.0000,-0.0000,0.0000,-1.9814,0.7550,-0.0773,1.0000
6.7810,8.6267,-5.6357,-0.2705,-0.9148,-0.0592,42.3462,-38.4644,26.9836,-0.0000,-0.0000,-0.0000,0.0000,-2.2983,1.1488,-1.4356,1.0000
1.7005,7.7284,-0.5956,0.0129,0.0067,0.1326,56.5964,-32.6630,29.4434,-0.0000,-0.0000,-0.0000,0.0000,-2.1248,1.1332,-1.9419,1.0000
1.5900,7.0592,-2.2671,-0.3621,0.3891,0.2402,55.0064,-27.6825,24.5255,-0.0000,-0.0000,-0.0000,0.0000,-2.1434,1.1967,-2.0391,1.0000
1.8969,7.8138,-1.6765,-0.1938,-0.0146,0.1176,48.3276,-27.7710,24.3011,-0.0000,-0.0000,-0.0000,0.0000,-2.4386,1.1933,-1.8005,1.0000
2.7292,6.6977,-2.4072,-0.5357,0.0600,0.1390,49.0051,-26.6998,27.8397,-0.0000,-0.0000,-0.0000,0.0000,-2.3819,1.2249,-1.8622,1.0000
1.8961,7.0672,-0.9678,0.0992,-0.1499,0.0516,45.5627,-29.3488,24.2905,-0.0000,-0.0000,-0.0000,0.0000,-2.4414,1.2039,-1.8451,1.0000
1.8234,8.3677,-1.5173,-0.0244,-0.1734,0.1315,46.8704,-28.3630,23.5474,-0.0000,-0.0000,-0.0000,0.0000,-2.4262,1.2283,-1.8948,1.0000
3.3298,8.7364,-0.8653,0.2292,-0.2138,0.0122,50.7797,-28.1860,25.2151,-0.0000,-0.0000,-0.0000,0.0000,-2.3085,1.2371,-2.0250,1.0000
2.5764,7.7412,-1.3777,-0.0286,0.1569,0.0676,49.5483,-28.6453,25.2548,-0.0000,-0.0000,-0.0000,0.0000,-2.2997,1.2393,-2.0269,1.0000
5.0855,7.5872,1.5868,0.1865,-0.1584,-0.1540,28.0106,-30.8609,16.3147,-0.0000,-0.0000,-0.0000,0.0000,-3.0295,1.0900,-1.2957,1.0000
4.8892,7.8441,1.2839,-0.0468,-0.2170,-0.1252,25.9796,-33.7021,15.3946,-0.0000,-0.0000,-0.0000,0.0000,-3.0466,1.0274,-1.3416,1.0000
6.2730,8.1486,0.4308,0.3463,-0.1606,-0.4224,36.2259,-30.5344,16.6397,-0.0000,-0.0000,-0.0000,0.0000,-2.7865,1.1368,-1.5668,1.0000
2.3023,7.5916,0.1435,-0.1309,0.2176,0.1571,46.3974,-31.6269,21.5302,-0.0000,-0.0000,-0.0000,0.0000,-2.5539,1.2003,-1.8169,1.0000
4.8501,7.3418,2.7691,-0.0308,0.1622,0.0037,26.1307,-31.4163,11.0718,-0.0000,-0.0000,-0.0000,0.0000,3.1141,1.0340,-1.2012,1.0000
3.4862,7.4088,1.6582,0.0204,0.0216,-0.0208,24.3576,-30.6213,7.2418,-0.0000,-0.0000,-0.0000,0.0000,2.9712,1.0146,-1.0954,1.0000
3.3054,7.6359,1.5381,0.0374,-0.1744,-0.0880,26.7303,-29.3182,6.0455,-0.0000,-0.0000,-0.0000,0.0000,2.9405,1.0559,-1.1035,1.0000
2.2552,6.8386,0.6139,0.1311,-0.0540,0.0963,34.7397,-31.2851,7.1289,-0.0000,-0.0000,-0.0000,0.0000,3.0933,1.1427,-1.3312,1.0000
4.3090,7.0190,0.6682,-0.3482,0.1302,0.1592,33.8135,-31.3263,6.3248,-0.0000,-0.0000,-0.0000,0.0000,3.1102,1.1531,-1.3686,1.0000
4.4131,7.4411,0.5744,-0.1043,0.0269,0.0239,34.6451,-31.5079,4.1534,-0.0000,-0.0000,-0.0000,0.0000,3.0741,1.1255,-1.3797,1.0000
3.7783,7.5086,1.6255,0.1493,-0.0285,0.0857,32.5470,-31.3721,0.5325,-0.0000,-0.0000,-0.0000,0.0000,2.9171,1.0563,-1.2712,1.0000
4.2719,6.7257,0.8501,-0.3930,-0.1329,0.0910,30.2628,-28.8467,-2.9678,-0.0000,-0.0000,-0.0000,0.0000,2.9030,1.0666,-1.3082,1.0000
3.7990,7.1035,1.3940,0.0544,-0.0104,0.0218,29.2831,-26.5198,-5.6870,-0.0000,-0.0000,-0.0000,0.0000,2.7690,1.0394,-1.2444,1.0000
3.4012,6.9320,0.4447,0.1503,-0.0881,-0.0347,31.8878,-27.4109,-6.1996,-0.0000,-0.0000,-0.0000,0.0000,2.8091,1.0677,-1.3581,1.0000
3.9810,7.2675,-0.9152,0.1365,-0.2192,-0.1465,37.0590,-29.7760,-3.8101,-0.0000,-0.0000,-0.0000,0.0000,2.9408,1.1138,-1.5096,1.0000
4.1486,6.6271,-1.3773,-0.1373,-0.0828,0.0154,39.8972,-31.5903,-4.0390,-0.0000,-0.0000,-0.0000,0.0000,3.0321,1.1155,-1.6107,1.0000
5.2104,6.8350,1.2093,-0.1863,0.0621,0.0559,27.7359,-25.0793,-11.4746,-0.0000,-0.0000,-0.0000,0.0000,2.7274,1.0110,-1.3169,1.0000
3.3745,7.0517,3.1969,0.4433,0.2080,0.0516,24.6841,-14.4287,-15.7227,-0.0000,-0.0000,-0.0000,0.0000,2.3294,0.8988,-1.0457,1.0000
4.0840,7.5449,1.7500,-0.1085,-0.0508,0.0473,20.9167,-11.7966,-23.0194,-0.0000,-0.0000,-0.0000,0.0000,2.1405,0.9538,-1.0793,1.0000
3.8210,7.5840,1.0748,0.6680,-0.3225,-0.2360,18.9148,-16.2064,-24.6643,-0.0000,-0.0000,-0.0000,0.0000,2.1701,1.1138,-1.4062,1.0000
4.7535,7.5912,-0.9902,0.0576,0.1196,0.0591,22.3587,-20.8252,-23.1430,-0.0000,-0.0000,-0.0000,0.0000,2.3968,1.1493,-1.7214,1.0000
1.3494,6.0433,-3.1131,-0.1501,0.4648,0.3211,28.6545,-23.1857,-14.2670,-0.0000,-0.0000,-0.0000,0.0000,2.8627,1.1517,-2.1565,1.0000
-2.3161,2.9480,-7.7351,-1.4391,0.0216,0.8250,48.6908,-0.2991,-5.3146,-0.0000,-0.0000,-0.0000,0.0000,-1.9830,0.5804,-3.0907,1.0000
3.4275,7.8477,-3.2986,-0.2034,-0.3960,-0.0571,33.9951,-19.0048,-3.3646,-0.0000,-0.0000,-0.0000,0.0000,-2.8013,1.0960,-2.3664,1.0000
2.9116,8.1434,-2.6753,-0.0979,-0.2682,-0.1668,32.9437,-19.6808,-6.0150,-0.0000,-0.0000,-0.0000,0.0000,-2.8119,1.1409,-2.4193,1.0000
2.5680,7.2396,-1.8106,-0.8223,-0.0327,-0.0645,28.3112,-18.6066,-13.2767,-0.0000,-0.0000,-0.0000,0.0000,-2.9606,1.1884,-2.2712,1.0000
3.4076,7.7316,1.9012,0.0214,0.0280,-0.0091,1.5915,-3.1616,-31.1539,-0.0000,-0.0000,-0.0000,0.0000,2.0438,1.1712,-1.3725,1.0000
2.7296,8.2875,0.0273,0.1588,-0.5526,-0.2083,2.2125,-6.9366,-30.0552,-0.0000,-0.0000,-0.0000,0.0000,1.9061,1.1982,-1.4806,1.0000
3.7954,7.8745,0.2979,-0.0084,-0.2756,-0.0443,1.3397,-7.0862,-29.2603,-0.0000,-0.0000,-0.0000,0.0000,1.8041,1.1910,-1.4569,1.0000
1.2859,6.5405,-1.6781,0.1791,-0.3587,-0.1764,18.7668,-15.8676,-18.5516,-0.0000,-0.0000,-0.0000,0.0000,2.5021,1.2950,-2.2206,1.0000
1.4647,7.5022,-1.4754,-0.2151,0.5329,0.3967,13.5193,-15.6113,-21.2753,-0.0000,-0.0000,-0.0000,0.0000,2.6273,1.2878,-2.3911,1.0000
3.3018,8.3038,-1.2966,-0.0851,-0.2575,-0.0613,6.5231,-15.0894,-25.8652,-0.0000,-0.0000,-0.0000,0.0000,2.3037,1.2242,-1.8642,1.0000
2.9818,8.0046,-2.0748,-0.5272,-0.3204,-0.1327,4.3884,-12.0651,-27.2858,-0.0000,-0.0000,-0.0000,0.0000,2.1751,1.2367,-1.7813,1.0000
3.6702,7.4727,-1.4638,0.0608,-0.0753,-0.1561,4.5242,-13.5559,-27.2964,-0.0000,-0.0000,-0.0000,0.0000,2.1385,1.2346,-1.7937,1.0000
-2.8046,4.4244,7.8624,-0.7136,6.6454,1.4908,29.6585,2.8915,1.0239,-0.0000,-0.0000,-0.0000,0.0000,1.5511,1.2406,-0.7610,1.0000
-1.1099,7.1407,3.7132,-0.2545,-0.2117,0.0782,16.1530,21.5866,13.8580,-0.0000,-0.0000,-0.0000,0.0000,2.1229,1.0644,-0.0435,0.0000
-1.3357,6.4611,6.5910,0.3996,-0.1712,0.2881,19.9982,12.8036,13.3682,-0.0000,-0.0000,-0.0000,0.0000,2.0858,0.9757,-0.0716,0.0000
-0.4379,5.9691,6.5962,1.0015,-0.1254,-0.0496,18.8324,10.1837,12.9379,-0.0000,-0.0000,-0.0000,0.0000,1.9878,0.9260,-0.0184,0.0000
-0.1171,6.2688,6.2918,0.2196,0.0876,0.4426,16.2033,10.3455,11.6074,-0.0000,-0.0000,-0.0000,0.0000,1.7630,0.8773,0.1277,1.0000
-1.1238,5.9787,6.1916,0.1418,0.1952,0.0505,20.4437,6.9656,11.9415,-0.0000,-0.0000,-0.0000,0.0000,1.7347,0.8391,0.0701,1.0000
5.7048,6.5266,4.9654,0.4060,-0.1212,0.1283,4.9194,-9.4635,-34.0927,-0.0000,-0.0000,-0.0000,0.0000,1.0966,1.0795,-0.8947,1.0000
3.9806,7.4507,1.4020,-0.4622,0.5947,0.2391,0.6088,-9.7473,-30.8502,-0.0000,-0.0000,-0.0000,0.0000,1.4201,1.0821,-1.2904,1.0000
2.3597,7.6618,0.5740,0.4102,0.0461,0.3030,-0.4532,-12.0529,-28.9307,-0.0000,-0.0000,-0.0000,0.0000,1.4585,1.0730,-1.4033,1.0000
4.3286,7.5074,-1.9914,-0.2438,0.2858,-0.0933,-4.5197,-11.8851,-29.3640,-0.0000,-0.0000,-0.0000,0.0000,1.5534,1.0305,-1.5244,1.0000
4.3342,7.2053,-0.1111,0.2068,0.1910,-0.0155,0.4745,-16.7343,-26.3260,-0.0000,-0.0000,-0.0000,0.0000,1.6988,1.0467,-1.6264,1.0000
4.2990,6.9232,-0.7180,-0.1149,-0.0018,-0.0262,0.2396,-16.0034,-27.1484,-0.0000,-0.0000,-0.0000,0.0000,1.8535,1.0421,-1.6174,1.0000
4.3326,6.5617,-0.8581,-0.2268,0.1004,0.1208,-0.4776,-14.8178,-28.8406,-0.0000,-0.0000,-0.0000,0.0000,1.8520,1.0153,-1.6059,1.0000
4.1909,6.7021,-0.7081,0.0012,-0.0966,-0.0400,-0.3845,-13.8184,-27.8595,-0.0000,-0.0000,-0.0000,0.0000,1.8624,1.0198,-1.6147,1.0000
4.9782,6.7133,-0.1957,-0.1714,0.0376,0.0069,-2.5787,-13.1256,-27.2156,-0.0000,-0.0000,-0.0000,0.0000,1.8623,1.0057,-1.6095,1.0000
4.8864,6.6032,0.6554,0.2100,-0.0924,-0.0059,-0.4349,-13.9008,-27.8839,-0.0000,-0.0000,-0.0000,0.0000,1.8613,1.0164,-1.6116,1.0000
5.2204,7.3897,1.0429,-0.0606,-0.0487,0.1134,-1.6800,-14.4012,-27.9419,-0.0000,-0.0000,-0.0000,0.0000,1.9011,1.0350,-1.6656,1.0000
3.8685,6.9268,-0.7260,-0.2619,0.0983,0.1485,-1.7746,-12.6419,-29.0894,-0.0000,-0.0000,-0.0000,0.0000,1.8620,1.0104,-1.6321,1.0000
4.3589,6.2229,2.1243,0.3016,0.3113,0.1198,-4.7424,-11.9781,-28.1540,-0.0000,-0.0000,-0.0000,0.0000,1.7786,1.0024,-1.5614,1.0000
3.5883,6.0876,-0.8785,0.6861,-0.3427,-0.4001,-13.4140,0.9613,-32.9651,-0.0000,-0.0000,-0.0000,0.0000,1.2786,0.9068,-1.3403,1.0000
2.3581,6.9044,-3.4937,0.5381,0.0855,-0.2552,22.4136,-6.9550,-9.6603,-0.0000,-0.0000,-0.0000,0.0000,2.9048,1.0300,-2.6284,1.0000
4.7994,7.9718,0.4352,-0.7754,-0.1403,0.2007,-0.7706,-8.5571,-29.0176,-0.0000,-0.0000,-0.0000,0.0000,2.0323,0.9811,-1.5423,1.0000
5.6853,6.6778,-1.0018,0.0907,-0.1212,-0.1657,-5.5099,-3.6636,-30.0018,-0.0000,-0.0000,-0.0000,0.0000,1.6608,0.9165,-1.3697,1.0000
6.4366,6.9659,3.4969,-1.0034,0.2091,0.4308,-9.8907,17.0120,-30.6366,-0.0000,-0.0000,-0.0000,0.0000,1.2884,0.7817,-1.1855,1.0000
7.1625,9.3022,3.4750,-0.3557,-0.5739,-0.4757,-7.7499,28.1860,-24.6628,-0.0000,-0.0000,-0.0000,0.0000,0.7481,0.6487,-0.9422,1.0000
6.0887,5.6926,3.1558,-0.3685,-0.1478,0.1166,-18.7103,33.2855,-22.0078,-0.0000,-0.0000,-0.0000,0.0000,0.4289,0.6478,-0.9585,1.0000
5.5684,5.5657,5.7295,-0.0042,-0.1105,-0.1039,-21.7773,37.4115,-14.5187,-0.0000,-0.0000,-0.0000,0.0000,0.1089,0.6434,-0.9191,1.0000
-0.9215,5.9954,-3.2100,0.3389,0.1782,-0.1710,10.1028,5.5466,-3.5202,-0.0000,-0.0000,-0.0000,0.0000,1.7343,1.2312,-2.8365,1.0000
-0.8748,8.3042,-4.1394,0.8971,0.2560,-1.1415,8.5785,0.9827,-13.3881,-0.0000,-0.0000,-0.0000,0.0000,2.2980,1.1128,2.9881,1.0000
-3.2192,4.1535,-7.1190,0.2622,0.2773,-0.1945,20.1553,-2.5955,-17.4881,-0.0000,-0.0000,-0.0000,0.0000,3.0970,0.5854,2.7674,1.0000
-3.7567,4.2034,-8.1971,-0.6188,-0.0413,0.2540,26.7502,-5.4199,-18.4235,-0.0000,-0.0000,-0.0000,0.0000,-2.6825,0.5786,2.8084,1.0000
0.2341,6.9727,-3.1138,-0.6817,0.0642,0.5789,22.1207,-8.2825,-3.9581,-0.0000,-0.0000,-0.0000,0.0000,3.1312,1.1517,-2.7354,1.0000
-0.0476,6.0637,0.1439,-0.0159,1.0166,0.6503,1.7456,-14.3646,-28.9383,-0.0000,-0.0000,-0.0000,0.0000,2.1244,1.3095,-1.7380,1.0000
1.6842,5.4316,-1.4419,-0.3898,0.2570,0.2828,-11.0016,-3.4729,-30.2979,-0.0000,-0.0000,-0.0000,0.0000,1.5813,1.1743,-1.3525,1.0000
4.2998,7.0808,2.2767,0.5061,-0.5153,-0.5258,-17.9871,4.3427,-30.3131,-0.0000,-0.0000,-0.0000,0.0000,1.1548,1.0930,-1.2292,1.0000
4.1342,7.4778,-0.4020,0.1343,-0.4375,-0.2552,-16.6153,-2.7756,-27.1133,-0.0000,-0.0000,-0.0000,0.0000,1.1107,1.1488,-1.3622,1.0000
1.5656,8.4168,-0.8769,0.2025,0.1856,-0.0475,8.9279,-21.7087,-11.4975,-0.0000,-0.0000,-0.0000,0.0000,2.1205,1.2932,-2.2834,1.0000
2.3486,8.3358,-1.5891,0.0821,-0.0700,-0.1678,16.6168,-14.2410,-3.4744,-0.0000,-0.0000,-0.0000,0.0000,2.7941,1.2608,-2.4983,1.0000
2.7751,7.5034,-0.3230,-0.1980,0.0237,0.2583,-6.6711,-13.3545,-27.3193,-0.0000,-0.0000,-0.0000,0.0000,2.2274,1.2206,-1.6468,1.0000
2.8849,8.1378,-2.5345,-0.0180,-0.3576,-0.3724,2.6260,-21.3135,-21.5942,-0.0000,-0.0000,-0.0000,0.0000,2.2484,1.2569,-1.8815,1.0000
3.1869,7.5377,-0.4671,0.0310,0.1068,0.0591,2.8732,-21.3440,-18.4937,-0.0000,-0.0000,-0.0000,0.0000,2.3631,1.2385,-1.9891,1.0000
4.1574,8.4355,2.8433,-0.6955,0.2325,0.6737,-11.7325,-5.3619,-29.2175,-0.0000,-0.0000,-0.0000,0.0000,1.8627,1.1376,-1.4583,1.0000
4.4834,7.0333,-0.0309,-0.1543,-0.1126,-0.0166,-19.3741,3.7933,-26.9470,-0.0000,-0.0000,-0.0000,0.0000,1.3621,1.0271,-1.2879,1.0000
5.3553,5.8685,3.7328,-0.4952,0.1548,0.2945,-25.8865,19.3069,-27.0859,-0.0000,-0.0000,-0.0000,0.0000,0.7938,0.8173,-1.0694,1.0000
5.1550,6.2791,3.3202,0.2835,-0.2533,-0.3255,-31.6315,17.3157,-26.1673,-0.0000,-0.0000,-0.0000,0.0000,0.5052,0.8401,-1.0956,1.0000
2.2572,7.6355,-1.7061,0.0300,-0.1084,0.0527,-4.9179,-20.6970,-4.6509,-0.0000,-0.0000,-0.0000,0.0000,1.2272,1.2036,-1.9683,1.0000
0.1595,7.6115,-3.6458,0.4241,0.0120,-0.4246,4.7256,3.2394,-2.8503,-0.0000,-0.0000,-0.0000,0.0000,2.2438,1.1743,-2.9772,1.0000
-0.6490,7.5648,-5.0252,0.0640,-0.0231,-0.2126,7.9315,2.7405,-11.5616,-0.0000,-0.0000,-0.0000,0.0000,2.6234,1.0306,2.9755,1.0000
-3.8097,3.5553,-8.7179,0.1812,0.0397,-0.6238,17.0441,-7.1182,-14.5706,-0.0000,-0.0000,-0.0000,0.0000,-2.9890,0.5012,2.8575,1.0000
-1.9363,4.7536,-7.2666,-1.0023,0.1420,0.7600,19.1559,-5.8548,-13.2355,-0.0000,-0.0000,-0.0000,0.0000,-2.7369,0.6779,2.9576,1.0000
3.6063,7.3154,-0.3130,-0.5123,0.3103,0.5150,-3.8239,-18.4311,-25.6409,-0.0000,-0.0000,-0.0000,0.0000,2.2647,1.1893,-1.9686,1.0000
4.7922,7.6810,-0.1690,0.1663,-0.1755,-0.2935,-16.1072,-4.7363,-29.1183,-0.0000,-0.0000,-0.0000,0.0000,1.4927,1.0408,-1.4045,1.0000
-5.0866,7.1965,-2.8293,-0.0159,0.4956,0.1262,-3.8467,6.4285,-19.9387,-0.0000,-0.0000,-0.0000,0.0000,-2.4612,1.0257,2.3163,1.0000
-5.1485,6.7867,-3.1821,0.3091,-0.0871,0.1464,-3.3554,8.7189,-18.6554,-0.0000,-0.0000,-0.0000,0.0000,-2.2084,1.0867,2.1501,1.0000
5.9223,5.3322,5.7064,1.9027,2.2661,1.6122,9.0103,-27.8381,-5.7755,-0.0000,-0.0000,-0.0000,0.0000,-2.8402,1.3960,3.0695,1.0000
2.6993,6.9340,-1.9303,1.0526,-1.0288,-0.9434,11.7676,-12.3367,2.4216,-0.0000,-0.0000,-0.0000,0.0000,1.9351,1.2217,-1.5727,1.0000
1.7971,6.9128,-4.3991,-0.3024,-0.0168,0.5352,10.3638,-5.7541,-0.9018,-0.0000,-0.0000,-0.0000,0.0000,2.9779,1.1252,-2.6096,1.0000
5.3956,7.4379,1.2045,0.0214,-0.0327,-0.1604,-22.5235,14.9857,-27.2552,-0.0000,-0.0000,-0.0000,0.0000,1.5218,0.9526,-1.3527,1.0000
4.0496,7.5784,1.1083,-0.1256,-0.2660,-0.0571,-30.7877,16.2354,-21.2296,-0.0000,-0.0000,-0.0000,0.0000,0.5556,1.0080,-1.1476,1.0000
4.0448,6.9423,2.6909,0.2909,-0.3012,-0.0507,-39.0991,19.8517,-10.5469,-0.0000,-0.0000,-0.0000,0.0000,-0.0099,1.0001,-1.1495,1.0000
3.6426,7.4212,-3.8293,-1.4998,0.2836,0.7653,-37.4908,6.8954,-2.9572,-0.0000,-0.0000,-0.0000,0.0000,-0.3943,1.1063,-1.1512,1.0000
3.1007,6.3250,0.1227,0.4390,0.0024,-0.1359,-35.6323,4.0146,4.2084,-0.0000,-0.0000,-0.0000,0.0000,-0.2910,1.1769,-1.3764,1.0000
3.4662,7.2001,-2.0149,-0.2523,-0.1105,-0.5822,-21.8201,-5.3070,11.6425,-0.0000,-0.0000,-0.0000,0.0000,0.3361,1.2402,-2.1351,1.0000
1.0126,8.1111,-0.2149,0.1216,0.1878,0.1709,-19.5175,-6.3187,12.5870,-0.0000,-0.0000,-0.0000,0.0000,0.3240,1.3166,-2.2680,0.0000
1.2572,7.7867,-1.7001,-0.0457,0.0173,-0.0102,-14.6072,-8.7265,16.0721,-0.0000,-0.0000,-0.0000,0.0000,0.3655,1.3059,-2.3888,0.0000
1.6371,8.7320,-2.7132,0.0225,0.0674,-0.0730,-14.1663,-9.7961,15.5670,-0.0000,-0.0000,-0.0000,0.0000,0.4157,1.2735,-2.4810,0.0000
0.9483,6.8689,-2.7547,0.0086,0.2219,0.0985,-6.8451,-5.4443,20.5307,-0.0000,-0.0000,-0.0000,0.0000,0.5889,1.2622,-2.7915,0.0000
2.6171,8.9315,-1.7507,0.1216,-0.3299,-0.2818,-13.6307,-9.5291,15.9958,-0.0000,-0.0000,-0.0000,0.0000,0.1226,1.2793,-2.4207,0.0000
1.2029,7.8166,-2.2440,-0.0414,0.0322,0.0782,-13.7299,-8.3435,16.0660,-0.0000,-0.0000,-0.0000,0.0000,0.1700,1.2733,-2.5324,0.0000
2.1091,8.1702,-2.0776,-0.1107,0.1665,0.0228,-16.9830,-7.2189,14.3311,-0.0000,-0.0000,-0.0000,0.0000,0.0036,1.2560,-2.3777,0.0000
2.1351,7.9188,-1.3852,-0.0808,0.2549,0.1038,-17.6575,-10.0983,13.5620,-0.0000,-0.0000,-0.0000,0.0000,0.0042,1.2609,-2.3478,0.0000
1.7879,7.5596,-1.4890,-0.0042,-0.0040,0.0484,-15.6235,-7.8781,13.4567,-0.0000,-0.0000,-0.0000,0.0000,0.1008,1.2676,-2.4074,0.0000
1.3374,7.5936,-2.3788,-0.1117,0.1175,0.0676,-14.7919,-8.6075,16.1942,-0.0000,-0.0000,-0.0000,0.0000,0.1749,1.2484,-2.5046,0.0000
1.8190,8.0066,-2.2531,-0.0617,0.1974,0.1411,-21.5332,-4.9927,11.9553,-0.0000,-0.0000,-0.0000,0.0000,0.0034,1.2262,-2.2342,0.0000
2.5680,7.9176,-0.9295,0.0374,-0.0721,-0.0400,-21.6034,-5.6259,11.8973,-0.0000,-0.0000,-0.0000,0.0000,0.1206,1.2241,-2.2431,0.0000
1.9060,7.7420,-2.2887,-0.0542,-0.0040,0.0857,-23.3917,-6.1798,11.2427,-0.0000,-0.0000,-0.0000,0.0000,0.1489,1.2424,-2.2278,0.0000
2.1099,7.9682,-1.3130,0.1791,-0.1531,-0.0443,-22.6868,-7.6584,11.1038,-0.0000,-0.0000,-0.0000,0.0000,0.2041,1.2383,-2.2511,0.0000
2.3330,7.7372,-2.1310,0.0427,-0.1765,-0.1124,-19.5236,-7.4875,13.1546,-0.0000,-0.0000,-0.0000,0.0000,0.2369,1.2317,-2.2957,0.0000
2.6159,7.8996,-2.5764,-0.2076,-0.0626,0.1347,-20.5032,-7.0709,11.9171,-0.0000,-0.0000,-0.0000,0.0000,0.2190,1.2094,-2.2909,0.0000
2.8450,7.8873,-1.8924,0.0150,-0.0285,-0.0389,-22.7448,-7.1152,11.7661,-0.0000,-0.0000,-0.0000,0.0000,0.1855,1.2053,-2.2725,0.0000
2.9116,7.5449,-1.9451,-0.1043,-0.2746,0.0058,-29.2709,-0.3357,10.0998,-0.0000,-0.0000,-0.0000,0.0000,-0.0859,1.1733,-1.9450,0.0000
2.8469,6.9172,-1.1239,0.0747,-0.0423,-0.1402,-33.6060,2.6489,9.0546,-0.0000,-0.0000,-0.0000,0.0000,-0.2563,1.1334,-1.6922,0.0000
4.0887,8.4459,0.0054,0.0406,-0.0018,-0.3308,-33.0658,-0.8545,9.5505,-0.0000,-0.0000,-0.0000,0.0000,-0.1686,1.1681,-1.7520,0.0000
0.9811,8.4112,4.2467,-0.3568,-0.1478,0.1656,-17.8513,4.8386,-13.0814,-0.0000,-0.0000,-0.0000,0.0000,-0.2783,1.1400,-0.1932,0.0000
0.1998,6.8849,3.8900,-0.0670,-0.5696,-0.7069,-18.3533,6.0455,-13.0615,-0.0000,-0.0000,-0.0000,0.0000,-0.4747,1.0203,-0.0516,1.0000
0.4448,7.0082,0.8817,0.2142,0.4402,0.4244,-4.0466,-4.8477,29.8019,-0.0000,-0.0000,-0.0000,0.0000,0.1087,1.2042,-2.2264,1.0000
-0.2117,8.1111,2.1917,-0.3003,-0.9009,0.1123,-21.5012,-0.7339,10.3683,-0.0000,-0.0000,-0.0000,0.0000,-0.7069,1.2381,-0.6074,1.0000
0.0417,5.2109,-8.0543,-0.2151,0.1068,-0.0411,-9.0424,1.7822,-0.0275,-0.0000,-0.0000,-0.0000,0.0000,1.1551,0.7480,-3.0561,1.0000
0.9384,5.3055,-5.1397,-1.0971,-0.6538,0.3350,-5.7083,3.5583,5.4230,-0.0000,-0.0000,-0.0000,0.0000,0.8581,0.9696,-2.7503,1.0000
3.1706,7.4092,-1.9447,0.1812,0.1335,-0.1785,-5.7037,-1.5533,13.7909,-0.0000,-0.0000,-0.0000,0.0000,0.3764,1.0859,-2.3779,1.0000
7.0161,6.5054,-0.7631,0.9045,0.2943,-1.7679,-23.0362,14.1968,-9.5230,-0.0000,-0.0000,-0.0000,0.0000,0.3073,1.1865,-1.9883,1.0000
0.5150,7.4579,-3.0576,0.0065,-0.0828,-0.2275,-42.5507,18.8141,-8.3954,-0.0000,-0.0000,-0.0000,0.0000,1.3821,1.3565,-2.9441,1.0000
-1.5045,7.4204,-3.7527,0.1066,-0.2628,-0.0975,-56.9504,13.7146,2.0569,-0.0000,-0.0000,-0.0000,0.0000,1.5781,1.3219,2.8949,1.0000
-0.9890,7.6726,-4.0703,0.0853,-0.4652,0.1166,-61.1832,15.0604,11.0748,-0.0000,-0.0000,-0.0000,0.0000,1.4346,1.2258,2.7939,1.0000
0.3965,7.8605,-5.3592,-0.1171,-0.7667,0.2487,-60.6918,25.4364,24.7742,-0.0000,-0.0000,-0.0000,0.0000,1.0167,1.1450,2.8974,1.0000
0.2923,7.8653,-4.2599,0.0747,-0.5142,0.2838,-44.5801,32.4387,44.4168,-0.0000,-0.0000,-0.0000,0.0000,0.5486,1.2003,2.8436,1.0000
-0.7057,7.2025,-5.5491,0.2078,-0.2575,0.2988,-19.9417,35.8994,50.3784,-0.0000,-0.0000,-0.0000,0.0000,0.2157,1.2219,2.7199,1.0000
-0.5277,7.7464,-3.8764,-0.1352,-0.8189,-0.3788,2.0554,30.8746,43.7317,-0.0000,-0.0000,-0.0000,0.0000,-0.2313,1.2481,2.6657,1.0000
-1.1881,8.0209,-1.1183,0.1887,0.1963,0.2593,6.6208,25.0870,38.6169,-0.0000,-0.0000,-0.0000,0.0000,0.0534,1.3012,2.2965,1.0000
0.4926,8.2603,-0.7157,0.2600,0.1920,0.0463,9.9411,26.5076,36.3876,-0.0000,-0.0000,-0.0000,0.0000,0.0272,1.3871,2.4157,1.0000
0.4292,7.9954,-1.5265,-0.0052,0.0802,0.0335,5.4230,26.2680,37.4222,-0.0000,-0.0000,-0.0000,0.0000,0.0919,1.4118,2.5455,1.0000
1.2847,7.5489,-0.8366,-0.0052,0.0600,-0.0816,10.5453,27.0889,38.0447,-0.0000,-0.0000,-0.0000,0.0000,-0.4784,1.4662,-3.0153,1.0000
-0.0217,5.1307,8.6201,-0.8553,1.0070,0.6471,-19.5267,-9.8297,32.0999,-0.0000,-0.0000,-0.0000,0.0000,-2.6494,1.0861,-0.0905,1.0000